emotion_practice,emotion_comp,file,file_emotion,file_emotion_level,file_gender,file_id,file_duration,size_w,size_h,practice.thisRepN,practice.thisTrialN,practice.thisN,practice.thisIndex,istr_loop_practice.thisRepN,istr_loop_practice.thisTrialN,istr_loop_practice.thisN,istr_loop_practice.thisIndex,loop_emotion_identication.thisRepN,loop_emotion_identication.thisTrialN,loop_emotion_identication.thisN,loop_emotion_identication.thisIndex,loop_practice.thisRepN,loop_practice.thisTrialN,loop_practice.thisN,loop_practice.thisIndex,random_by_pt_num.thisRepN,random_by_pt_num.thisTrialN,random_by_pt_num.thisN,random_by_pt_num.thisIndex,loop_itr_exp.thisRepN,loop_itr_exp.thisTrialN,loop_itr_exp.thisN,loop_itr_exp.thisIndex,loop_exp.thisRepN,loop_exp.thisTrialN,loop_exp.thisN,loop_exp.thisIndex,wheelresp_angle,wheelresp_cake,wheelresp_norm,wheelresp_emotion,wheelresp_level,Wheelresp.x,Wheelresp.y,Wheelresp.leftButton,Wheelresp.midButton,Wheelresp.rightButton,Wheelresp.time,Wheelresp.clicked_name,Wheelresp.started,Wheelresp.stopped,file_emotion,wheelresp.x,wheelresp.y,wheelresp.leftButton,wheelresp.midButton,wheelresp.rightButton,wheelresp.time,wheelresp.clicked_name,wheelresp.started,wheelresp.stopped,compound_angle,compound_cake,compound_norm,compound_emotion,compound_level,compound.x,compound.y,compound.leftButton,compound.midButton,compound.rightButton,compound.time,compound.clicked_name,compound.started,compound.stopped,kb_end_training.keys,kb_end_training.rt,participant,session,group,age,gender,education,practice,experimenter,date,expName,psychopyVersion,frameRate,
,,,,,,,,,,0,0,0,0,0,0,0,0,,,,,,,,,,,,,,,,,,,,,,,,,,,,,,,,,,,,,,,,,,,,,,,,,,,,,,,,,,,,,02,001,healthy,24,f,17,1,aurora,2022-03-24_14h32.23.302,pilot_AIM1,2022.1.1,84.80855381084959,
DISPREZZO,INVIDIA,,,,,,,,,0,0,0,0,,,,,0,0,0,5,,,,,,,,,,,,,,,,,121.93844891667189,disprezzo,181.4717608885746,Disprezzo,4,[-96.0],[154.0],[1],[0],[0],[3.01227237652094],['Disprezzo_4'],0.011177756866771915,None,,,,,,,,,,,,,,,,,,,,,,,,,,,02,001,healthy,24,f,17,1,aurora,2022-03-24_14h32.23.302,pilot_AIM1,2022.1.1,84.80855381084959,
SPERANZA,NEUTRO,,,,,,,,,0,0,0,0,,,,,0,1,1,14,,,,,,,,,,,,,,,,,-32.7352262721076,speranza,199.71980372511885,Speranza,4,[168.0],[-108.0],[1],[0],[0],[1.5498165798475725],['Speranza_4'],0.011190585693668709,None,,,,,,,,,,,,,,,,,,,,,,,,,,,02,001,healthy,24,f,17,1,aurora,2022-03-24_14h32.23.302,pilot_AIM1,2022.1.1,84.80855381084959,
INVIDIA,NEUTRO,,,,,,,,,0,0,0,0,,,,,0,2,2,7,,,,,,,,,,,,,,,,,167.5119142310515,invidia,152.6106156202772,Invidia,3,[-149.0],[33.0],[1],[0],[0],[4.0349450829993145],['Invidia_3'],0.011179360470123356,None,,,,,,,,,,,,,,,,,,,,,,,,,,,02,001,healthy,24,f,17,1,aurora,2022-03-24_14h32.23.302,pilot_AIM1,2022.1.1,84.80855381084959,
ORGOGLIO,NEUTRO,,,,,,,,,0,0,0,0,,,,,0,3,3,3,,,,,,,,,,,,,,,,,82.14668669802178,orgoglio,204.92193635626225,Orgoglio,4,[28.0],[203.0],[1],[0],[0],[3.9153252524552613],['Orgoglio_4'],0.011212715420015229,None,,,,,,,,,,,,,,,,,,,,,,,,,,,02,001,healthy,24,f,17,1,aurora,2022-03-24_14h32.23.302,pilot_AIM1,2022.1.1,84.80855381084959,
TRISTEZZA,NEUTRO,,,,,,,,,0,0,0,0,,,,,0,4,4,11,,,,,,,,,,,,,,,,,-100.87352039525506,tristezza,180.23595645708434,Tristezza,4,[-34.0],[-177.0],[1],[0],[0],[2.2318284477953227],['Tristezza_4'],0.01121207397869739,None,,,,,,,,,,,,,,,,,,,,,,,,,,,02,001,healthy,24,f,17,1,aurora,2022-03-24_14h32.23.302,pilot_AIM1,2022.1.1,84.80855381084959,
SOLLIEVO,GIOIA,,,,,,,,,0,0,0,0,,,,,0,5,5,15,,,,,,,,,,,,,,,,,-9.372092708579087,soglievo,104.39348638684312,Sollievo,2,[103.0],[-17.0],[1],[0],[0],[2.4772750160520616],['Sollievo_2'],0.011217846950813737,None,,,,,,,,,,,,,,,,,,,,,,,,,,,02,001,healthy,24,f,17,1,aurora,2022-03-24_14h32.23.302,pilot_AIM1,2022.1.1,84.80855381084959,
PAURA,NEUTRO,,,,,,,,,0,0,0,0,,,,,0,6,6,10,,,,,,,,,,,,,,,,,-126.65100366014354,paura,209.40152817016403,Paura,4,[-125.0],[-168.0],[1],[0],[0],[2.60722493872629],['Paura_4'],0.011222337040180719,None,,,,,,,,,,,,,,,,,,,,,,,,,,,02,001,healthy,24,f,17,1,aurora,2022-03-24_14h32.23.302,pilot_AIM1,2022.1.1,84.80855381084959,
DISGUSTO,NEUTRO,,,,,,,,,0,0,0,0,,,,,0,7,7,6,,,,,,,,,,,,,,,,,144.87405925175742,disgusto,210.2974084481309,Disgusto,4,[-172.0],[121.0],[1],[0],[0],[2.939190719113526],['Disgusto_4'],0.011205338844547441,None,,,,,,,,,,,,,,,,,,,,,,,,,,,02,001,healthy,24,f,17,1,aurora,2022-03-24_14h32.23.302,pilot_AIM1,2022.1.1,84.80855381084959,
GIOIA,SODDISFAZIONE,,,,,,,,,0,0,0,0,,,,,0,8,8,2,,,,,,,,,,,,,,,,,29.48712567294147,gioia,193.0,Gioia,4,[168.0],[95.0],[1],[0],[0],[1.3820382953311423],['Gioia_4'],0.011221695598919723,None,,,,,,,,,,,,,,,,,,,,,,,,,,,02,001,healthy,24,f,17,1,aurora,2022-03-24_14h32.23.302,pilot_AIM1,2022.1.1,84.80855381084959,
VERGOGNA,TRISTEZZA,,,,,,,,,0,0,0,0,,,,,0,9,9,9,,,,,,,,,,,,,,,,,-144.1073343122544,vergogna,187.62729012593024,Vergogna,4,[-152.0],[-110.0],[1],[0],[0],[2.2891886985732413],['Vergogna_4'],0.01118930281103303,None,,,,,,,,,,,,,,,,,,,,,,,,,,,02,001,healthy,24,f,17,1,aurora,2022-03-24_14h32.23.302,pilot_AIM1,2022.1.1,84.80855381084959,
SORPRESA,GIOIA,,,,,,,,,0,0,0,0,,,,,0,10,10,12,,,,,,,,,,,,,,,,,-74.74488129694222,sorpresa,205.23157651784484,Sorpresa,4,[55.0],[-198.0],[1],[0],[0],[5.8006971184530585],['Sorpresa_4'],0.01119283073836641,None,,,,,,,,,,,,,,,,,,,,,,,,,,,02,001,healthy,24,f,17,1,aurora,2022-03-24_14h32.23.302,pilot_AIM1,2022.1.1,84.80855381084959,
COLPA,VERGOGNA,,,,,,,,,0,0,0,0,,,,,0,11,11,8,,,,,,,,,,,,,,,,,-168.57289840605486,colpa,191.80198122021577,Colpa,4,[-188.0],[-38.0],[1],[0],[0],[2.1501790583512843],['Colpa_4'],0.011199245151772175,None,,,,,,,,,,,,,,,,,,,,,,,,,,,02,001,healthy,24,f,17,1,aurora,2022-03-24_14h32.23.302,pilot_AIM1,2022.1.1,84.80855381084959,
SODDISFAZIONE,EUFORIA,,,,,,,,,0,0,0,0,,,,,0,12,12,0,,,,,,,,,,,,,,,,,11.949757221493854,soddisfazione,193.18643844742311,Soddisfazione,4,[189.0],[40.0],[1],[0],[0],[1.711819647220068],['Soddisfazione_4'],0.011233241543095573,None,,,,,,,,,,,,,,,,,,,,,,,,,,,02,001,healthy,24,f,17,1,aurora,2022-03-24_14h32.23.302,pilot_AIM1,2022.1.1,84.80855381084959,
EUFORIA,GIOIA,,,,,,,,,0,0,0,0,,,,,0,13,13,1,,,,,,,,,,,,,,,,,58.986115939584934,euforia,196.02295783912658,Euforia,4,[101.0],[168.0],[1],[0],[0],[3.2914398369712785],['Euforia_4'],0.011159155067787196,None,,,,,,,,,,,,,,,,,,,,,,,,,,,02,001,healthy,24,f,17,1,aurora,2022-03-24_14h32.23.302,pilot_AIM1,2022.1.1,84.80855381084959,
RABBIA,DISPREZZO,,,,,,,,,0,0,0,0,,,,,0,14,14,4,,,,,,,,,,,,,,,,,101.01968278103453,rabbia,193.56910910576616,Rabbia,4,[-37.0],[190.0],[1],[0],[0],[4.104090856317782],['Rabbia_4'],0.011205338844547441,None,,,,,,,,,,,,,,,,,,,,,,,,,,,02,001,healthy,24,f,17,1,aurora,2022-03-24_14h32.23.302,pilot_AIM1,2022.1.1,84.80855381084959,
INTERESSE,SORPRESA,,,,,,,,,0,0,0,0,,,,,0,15,15,13,,,,,,,,,,,,,,,,,-58.20592798166847,interesse,201.1889659002203,Interesse,4,[106.0],[-171.0],[1],[0],[0],[5.41168346922268],['Interesse_4'],0.011203735241224422,None,,,,,,,,,,,,,,,,,,,,,,,,,,,02,001,healthy,24,f,17,1,aurora,2022-03-24_14h32.23.302,pilot_AIM1,2022.1.1,84.80855381084959,
,,stimoli/02.subtle/JM2_Neutral.wmv,neutral,subtle,maschio,8,10,1646,926,0,0,0,0,,,,,,,,,0,0,0,27,,,,,,,,,,,,,-166.09731288577944,colpa,104.04806581575652,colpa,3,,,,,,,,,,neutral,[-357.0],[-25.0],[1],[0],[0],[8.968125175995453],['colpa_3'],0.01082688845139046,None,5.046142331858312,soddisfazione,259.4860304525082,disgusto,2,[197.0],[40.0],[1],[0],[0],[5.255738173906252],['disgusto_6'],0.00035118913604037516,None,,,02,001,healthy,24,f,17,1,aurora,2022-03-24_14h32.23.302,pilot_AIM1,2022.1.1,84.80855381084959,
,,stimoli/01.full/F01-Joy-Face Forward.wmv,happy,full,femmina,1,6,720,576,0,0,0,0,,,,,,,,,0,1,1,40,,,,,,,,,,,,,30.579226872489016,gioia,102.2154587134451,gioia,3,,,,,,,,,,happy,[-168.0],[52.0],[1],[0],[0],[11.111659222739831],['gioia_3'],0.010614250645744505,None,-1.3709193692894641,soglievo,257.0233452431899,sollievo,2,[329.0],[-14.0],[1],[0],[0],[3.9034354956962716],['sollievo_6'],0.0010574160561418466,None,,,02,001,healthy,24,f,17,1,aurora,2022-03-24_14h32.23.302,pilot_AIM1,2022.1.1,84.80855381084959,
,,stimoli/01.full/F01-Sadness-Face Forward.wmv,sad,full,femmina,1,6,720,576,0,0,0,0,,,,,,,,,0,2,2,44,,,,,,,,,,,,,-100.88552705465874,tristezza,132.38202294873727,tristezza,4,,,,,,,,,,sad,[-281.0],[-130.0],[1],[0],[0],[4.23375309254908],['tristezza_4'],0.010583140740607178,None,-3.30980431000859,soglievo,257.4315442986737,colpa,3,[159.0],[-24.0],[1],[0],[0],[5.2931723700423845],['colpa_7'],0.0005894845954799166,None,,,02,001,healthy,24,f,17,1,aurora,2022-03-24_14h32.23.302,pilot_AIM1,2022.1.1,84.80855381084959,
,,stimoli/02.subtle/JM2_Sadness.wmv,sad,subtle,maschio,8,10,1646,926,0,0,0,0,,,,,,,,,0,3,3,19,,,,,,,,,,,,,-126.10745129175186,paura,105.20931517693668,paura,3,,,,,,,,,,sad,[-318.0],[-85.0],[1],[0],[0],[9.07269711332151],['paura_3'],0.010937216362663094,None,-7.964454882614116,soglievo,263.5090131285835,vergogna,3,[180.0],[-61.0],[1],[0],[0],[2.574340806766429],['vergogna_7'],0.0007803133954098485,None,,,02,001,healthy,24,f,17,1,aurora,2022-03-24_14h32.23.302,pilot_AIM1,2022.1.1,84.80855381084959,
,,stimoli/02.subtle/JF1_Fear.wmv,fear,subtle,femmina,5,10,1646,926,,,,,,,,,,,,,,,,,0,0,0,0,,,,,0,0,0,0,-119.94568344039517,paura,106.17438485811914,paura,3,,,,,,,,,,fear,[-309.0],[-92.0],[1],[0],[0],[3.540286685794456],['paura_3'],0.010966401943846904,None,-8.339386372432829,soglievo,266.6589582219206,tristezza,2,[242.0],[-73.0],[1],[0],[0],[5.47825834563298],['tristezza_6'],0.00030147743188990717,None,n,4.428829704278883,02,001,healthy,24,f,17,1,aurora,2022-03-24_14h32.23.302,pilot_AIM1,2022.1.1,84.80855381084959,
,,stimoli/01.full/M02-Disgust-Face Forward.wmv,disgusted,full,maschio,3,6,720,576,,,,,,,,,,,,,,,,,0,0,0,0,,,,,0,1,1,38,146.78052377691543,disgusto,135.07405376311175,disgusto,4,,,,,,,,,,disgusted,[-369.0],[74.0],[1],[0],[0],[1.772984286611404],['disgusto_4'],0.01057063263431246,None,-8.185928039166026,soglievo,263.73281934564005,vergogna,3,[175.0],[-62.0],[1],[0],[0],[4.585349223118328],['vergogna_7'],0.0010484358774078828,None,,,02,001,healthy,24,f,17,1,aurora,2022-03-24_14h32.23.302,pilot_AIM1,2022.1.1,84.80855381084959,
,,stimoli/01.full/M02-Joy-Face Forward.wmv,happy,full,maschio,3,6,720,576,,,,,,,,,,,,,,,,,0,0,0,0,,,,,0,2,2,42,33.690067525979785,gioia,137.0109484676316,gioia,4,,,,,,,,,,happy,[-142.0],[76.0],[1],[0],[0],[2.797631670268345],['gioia_4'],0.010549465070027964,None,2.3507236253163097,soddisfazione,257.9030825717289,soddisfazione,3,[353.0],[25.0],[1],[0],[0],[1.7219476853268816],['soddisfazione_7'],0.0008402881611573321,None,,,02,001,healthy,24,f,17,1,aurora,2022-03-24_14h32.23.302,pilot_AIM1,2022.1.1,84.80855381084959,
,,stimoli/01.full/F03-Joy-Face Forward.wmv,happy,full,femmina,2,6,720,576,,,,,,,,,,,,,,,,,0,0,0,0,,,,,0,3,3,41,59.82647997035567,euforia,99.4786409235671,euforia,3,,,,,,,,,,happy,[-206.0],[86.0],[1],[0],[0],[3.8686430757369408],['euforia_3'],0.010598535332860592,None,7.2864503791339565,soddisfazione,265.1282708426244,orgoglio,2,[268.0],[67.0],[1],[0],[0],[1.4640183477882829],['orgoglio_6'],0.000522774695696171,None,,,02,001,healthy,24,f,17,1,aurora,2022-03-24_14h32.23.302,pilot_AIM1,2022.1.1,84.80855381084959,
,,stimoli/01.full/F01-Fear-Face Forward.wmv,fear,full,femmina,1,6,720,576,,,,,,,,,,,,,,,,,0,0,0,0,,,,,0,4,4,28,-122.14190982700183,paura,133.4541119636259,paura,4,,,,,,,,,,fear,[-327.0],[-113.0],[1],[0],[0],[8.792226564780208],['paura_4'],0.010574481282333181,None,-10.769422286889546,soglievo,275.70273847025896,sorpresa,3,[275.0],[-101.0],[1],[0],[0],[7.210089038473029],['sorpresa_7'],0.0009669728265180311,None,,,02,001,healthy,24,f,17,1,aurora,2022-03-24_14h32.23.302,pilot_AIM1,2022.1.1,84.80855381084959,
,,stimoli/01.full/F01-Joy-Face Forward.wmv,happy,full,femmina,1,6,720,576,,,,,,,,,,,,,,,,,0,0,0,0,,,,,0,5,5,40,36.747470952863914,gioia,93.60021367496978,gioia,3,,,,,,,,,,happy,[-181.0],[56.0],[1],[0],[0],[4.103847108606942],['gioia_3'],0.010507450661862094,None,-4.589817986832372,soglievo,260.70864964553823,speranza,2,[317.0],[-46.0],[1],[0],[0],[6.517930530619537],['speranza_6'],0.0009195061671789517,None,,,02,001,healthy,24,f,17,1,aurora,2022-03-24_14h32.23.302,pilot_AIM1,2022.1.1,84.80855381084959,
,,stimoli/02.subtle/JM1_Sadness.wmv,sad,subtle,maschio,7,10,1646,926,,,,,,,,,,,,,,,,,0,0,0,0,,,,,0,6,6,18,-101.05145702666543,tristezza,130.41855696180662,tristezza,4,,,,,,,,,,sad,[-281.0],[-128.0],[1],[0],[0],[1.7963215263224583],['tristezza_4'],0.010947158703629611,None,-1.9525090493996085,soglievo,256.7975856584325,colpa,2,[184.0],[-15.0],[1],[0],[0],[2.9619686219722325],['colpa_6'],0.0009913475976190966,None,,,02,001,healthy,24,f,17,1,aurora,2022-03-24_14h32.23.302,pilot_AIM1,2022.1.1,84.80855381084959,
,,stimoli/02.subtle/JF2_Neutral.wmv,neutral,subtle,femmina,6,9,1646,926,,,,,,,,,,,,,,,,,0,0,0,0,,,,,0,7,7,25,153.434948822922,disgusto,2.23606797749979,neutral,1,,,,,,,,,,neutral,[-258.0],[1.0],[1],[0],[0],[12.606503317213992],['neutral_1'],0.010885901055189606,None,-0.10955202617651363,soglievo,256.52290346088006,neutral,1,[267.0],[-1.0],[1],[0],[0],[1.9240921520292886],['neutral_5'],0.0009490124689364166,None,,,02,001,healthy,24,f,17,1,aurora,2022-03-24_14h32.23.302,pilot_AIM1,2022.1.1,84.80855381084959,
,,stimoli/02.subtle/JF1_Surprise.wmv,surprised,subtle,femmina,5,10,1646,926,,,,,,,,,,,,,,,,,0,0,0,0,,,,,0,8,8,20,125.81116392264123,disprezzo,97.41663102366043,disprezzo,3,,,,,,,,,,surprised,[-313.0],[79.0],[1],[0],[0],[6.730056145360891],['disprezzo_3'],0.010836510071612793,None,1.8141919090299523,soddisfazione,256.74500968860133,invidia,2,[186.0],[14.0],[1],[0],[0],[4.020570061751641],['invidia_6'],0.0006510629644935761,None,,,02,001,healthy,24,f,17,1,aurora,2022-03-24_14h32.23.302,pilot_AIM1,2022.1.1,84.80855381084959,
,,stimoli/02.subtle/JM1_Anger.wmv,angry,subtle,maschio,7,10,1646,926,,,,,,,,,,,,,,,,,0,0,0,0,,,,,0,9,9,6,102.2647737278924,rabbia,141.22322755127783,rabbia,4,,,,,,,,,,angry,[-286.0],[138.0],[1],[0],[0],[2.5854826429178956],['rabbia_4'],0.010854791149768062,None,10.216170541096385,soddisfazione,269.18209450110163,disprezzo,3,[199.0],[82.0],[1],[0],[0],[1.689442324480865],['disprezzo_7'],0.0010154016482601946,None,,,02,001,healthy,24,f,17,1,aurora,2022-03-24_14h32.23.302,pilot_AIM1,2022.1.1,84.80855381084959,
,,stimoli/01.full/M02-Sadness-Face Forward.wmv,sad,full,maschio,3,6,720,576,,,,,,,,,,,,,,,,,0,0,0,0,,,,,0,10,10,46,-106.35581710101725,tristezza,95.88013350011565,tristezza,3,,,,,,,,,,sad,[-283.0],[-92.0],[1],[0],[0],[3.1864506420506586],['tristezza_3'],0.010541126332441308,None,-7.964454882614116,soglievo,263.5090131285835,vergogna,3,[180.0],[-61.0],[1],[0],[0],[5.267023051477622],['vergogna_7'],0.000903790854295039,None,,,02,001,healthy,24,f,17,1,aurora,2022-03-24_14h32.23.302,pilot_AIM1,2022.1.1,84.80855381084959,
,,stimoli/02.subtle/JF1_Anger.wmv,angry,subtle,femmina,5,10,1646,926,,,,,,,,,,,,,,,,,0,0,0,0,,,,,0,11,11,4,-123.53604698430745,paura,103.1746092796091,paura,3,,,,,,,,,,angry,[-313.0],[-86.0],[1],[0],[0],[2.6551277783229352],['paura_3'],0.010964477619722857,None,-0.2246881796245023,soglievo,256.50341128335896,neutral,1,[254.0],[-2.0],[1],[0],[0],[4.951871693770727],['neutral_5'],0.0008149512281079296,None,,,02,001,healthy,24,f,17,1,aurora,2022-03-24_14h32.23.302,pilot_AIM1,2022.1.1,84.80855381084959,
,,stimoli/02.subtle/JM2_Fear.wmv,fear,subtle,maschio,8,10,1646,926,,,,,,,,,,,,,,,,,0,0,0,0,,,,,0,12,12,3,-80.93349726018383,sorpresa,95.1892851112981,sorpresa,3,,,,,,,,,,fear,[-241.0],[-94.0],[1],[0],[0],[1.3022757056015735],['sorpresa_3'],0.010817908272656496,None,-7.467654731505702,soglievo,263.81243336886155,paura,2,[217.0],[-62.0],[1],[0],[0],[3.783986609270414],['paura_6'],0.0010705656037544031,None,,,02,001,healthy,24,f,17,1,aurora,2022-03-24_14h32.23.302,pilot_AIM1,2022.1.1,84.80855381084959,
,,stimoli/01.full/M03-Joy-Face Forward.wmv,happy,full,maschio,4,6,720,576,,,,,,,,,,,,,,,,,0,0,0,0,,,,,0,13,13,43,30.96375653207352,gioia,104.95713410721541,gioia,3,,,,,,,,,,happy,[-166.0],[54.0],[1],[0],[0],[4.21953073434122],['gioia_3'],0.010607515511765087,None,1.0753917479595705,soddisfazione,256.8793491116014,soddisfazione,2,[330.0],[11.0],[1],[0],[0],[1.6316144629628297],['soddisfazione_6'],0.001152670095962094,None,,,02,001,healthy,24,f,17,1,aurora,2022-03-24_14h32.23.302,pilot_AIM1,2022.1.1,84.80855381084959,
,,stimoli/01.full/F01-Sadness-Face Forward.wmv,sad,full,femmina,1,6,720,576,,,,,,,,,,,,,,,,,0,0,0,0,,,,,0,14,14,44,-103.6097318958122,tristezza,97.74456506629922,tristezza,3,,,,,,,,,,sad,[-279.0],[-95.0],[1],[0],[0],[3.3837785256984034],['tristezza_3'],0.010573519120384844,None,-5.410552522505622,soglievo,259.9673056366896,vergogna,2,[198.0],[-43.0],[1],[0],[0],[3.268326460289245],['vergogna_6'],0.0011286160454346827,None,,,02,001,healthy,24,f,17,1,aurora,2022-03-24_14h32.23.302,pilot_AIM1,2022.1.1,84.80855381084959,
,,stimoli/01.full/M03-Surprise-Face Forward.wmv,surprised,full,maschio,4,6,720,576,,,,,,,,,,,,,,,,,0,0,0,0,,,,,0,15,15,51,-79.50852298766841,sorpresa,137.2953021774598,sorpresa,4,,,,,,,,,,surprised,[-231.0],[-135.0],[1],[0],[0],[1.5368296376690296],['sorpresa_4'],0.010574481282560555,None,-0.112344521736011,soglievo,256.4975633412528,neutral,1,[254.0],[-1.0],[1],[0],[0],[1.3120390843039331],['neutral_5'],0.0006933980931762562,None,,,02,001,healthy,24,f,17,1,aurora,2022-03-24_14h32.23.302,pilot_AIM1,2022.1.1,84.80855381084959,
,,stimoli/01.full/F01-Surprise-Face Forward.wmv,surprised,full,femmina,1,6,720,576,,,,,,,,,,,,,,,,,0,0,0,0,,,,,0,16,16,48,-80.61085243866876,sorpresa,128.7245120402482,sorpresa,4,,,,,,,,,,surprised,[-235.0],[-127.0],[1],[0],[0],[1.2889481580690472],['sorpresa_4'],0.010554596600854893,None,-4.705096977266242,soglievo,259.54960990145986,paura,1,[230.0],[-40.0],[1],[0],[0],[3.854685632804376],['paura_5'],0.0009275241839077353,None,,,02,001,healthy,24,f,17,1,aurora,2022-03-24_14h32.23.302,pilot_AIM1,2022.1.1,84.80855381084959,
,,stimoli/02.subtle/JF2_Surprise.wmv,surprised,subtle,femmina,6,10,1646,926,,,,,,,,,,,,,,,,,0,0,0,0,,,,,0,17,17,21,-77.63750758428569,sorpresa,74.73285756613352,sorpresa,2,,,,,,,,,,surprised,[-240.0],[-73.0],[1],[0],[0],[6.0335242904214965],['sorpresa_2'],0.0108172668313955,None,3.1134387480572165,soddisfazione,257.7479388860365,disgusto,1,[222.0],[26.0],[1],[0],[0],[2.38713518825341],['disgusto_5'],0.0011157872185094675,None,,,02,001,healthy,24,f,17,1,aurora,2022-03-24_14h32.23.302,pilot_AIM1,2022.1.1,84.80855381084959,
,,stimoli/01.full/F01-Disgust-Face Forward.wmv,disgusted,full,femmina,1,6,720,576,,,,,,,,,,,,,,,,,0,0,0,0,,,,,0,18,18,36,147.0947570770121,disgusto,141.7391971192161,disgusto,4,,,,,,,,,,disgusted,[-375.0],[77.0],[1],[0],[0],[1.3930030936714957],['disgusto_4'],0.010591479477966459,None,7.184267392426861,soddisfazione,263.35527334762065,disprezzo,2,[220.0],[60.0],[1],[0],[0],[5.989772859205573],['disprezzo_6'],0.0010436250672682945,None,,,02,001,healthy,24,f,17,1,aurora,2022-03-24_14h32.23.302,pilot_AIM1,2022.1.1,84.80855381084959,
,,stimoli/01.full/M03-Neutral-Face Forward.wmv,neutral,full,maschio,4,6,720,576,,,,,,,,,,,,,,,,,0,0,0,0,,,,,0,19,19,55,0.0,soddisfazione,0.0,neutral,1,,,,,,,,,,neutral,[-256.0],[0.0],[1],[0],[0],[1.640626713851134],['neutral_1'],0.010577047047831911,None,0.4458725519324895,soddisfazione,256.5345980564805,neutral,1,[258.0],[4.0],[1],[0],[0],[1.0901023034799664],['neutral_5'],0.0010022521006476381,None,,,02,001,healthy,24,f,17,1,aurora,2022-03-24_14h32.23.302,pilot_AIM1,2022.1.1,84.80855381084959,
,,stimoli/01.full/M03-Sadness-Face Forward.wmv,sad,full,maschio,4,6,720,576,,,,,,,,,,,,,,,,,0,0,0,0,,,,,0,20,20,47,-103.26332874340633,tristezza,143.83671297690307,tristezza,4,,,,,,,,,,sad,[-289.0],[-140.0],[1],[0],[0],[1.512689634115418],['tristezza_4'],0.010578650651268617,None,-4.685899839502703,soglievo,259.55346270084704,paura,1,[232.0],[-40.0],[1],[0],[0],[2.749748394632661],['paura_5'],0.0007312431326909064,None,,,02,001,healthy,24,f,17,1,aurora,2022-03-24_14h32.23.302,pilot_AIM1,2022.1.1,84.80855381084959,
,,stimoli/02.subtle/JM2_Surprise.wmv,surprised,subtle,maschio,8,10,1646,926,,,,,,,,,,,,,,,,,0,0,0,0,,,,,0,21,21,23,-35.25635871296284,speranza,71.02816342831905,speranza,2,,,,,,,,,,surprised,[-198.0],[-41.0],[1],[0],[0],[8.20053092100079],['speranza_2'],0.01087531727307578,None,-1.478908464040707,soglievo,257.0719743573772,sollievo,2,[325.0],[-15.0],[1],[0],[0],[1.9270171245595975],['sollievo_6'],0.0008348359098135916,None,,,02,001,healthy,24,f,17,1,aurora,2022-03-24_14h32.23.302,pilot_AIM1,2022.1.1,84.80855381084959,
,,stimoli/02.subtle/JM1_Neutral.wmv,neutral,subtle,maschio,7,10,1646,926,,,,,,,,,,,,,,,,,0,0,0,0,,,,,0,22,22,26,-166.75948008481282,colpa,69.85699678629192,colpa,2,,,,,,,,,,neutral,[-324.0],[-16.0],[1],[0],[0],[5.012268527872834],['colpa_2'],0.0109724956367927,None,-3.1199529916833932,soglievo,257.74599899901455,vergogna,1,[221.0],[-26.0],[1],[0],[0],[1.9831762764201812],['vergogna_5'],0.0009560683238305501,None,,,02,001,healthy,24,f,17,1,aurora,2022-03-24_14h32.23.302,pilot_AIM1,2022.1.1,84.80855381084959,
,,stimoli/02.subtle/JM1_Surprise.wmv,surprised,subtle,maschio,7,10,1646,926,,,,,,,,,,,,,,,,,0,0,0,0,,,,,0,23,23,22,-56.768288932020646,interesse,69.33974329343886,interesse,2,,,,,,,,,,surprised,[-218.0],[-58.0],[1],[0],[0],[6.129345364207211],['interesse_2'],0.010895201954554068,None,-0.1119056770662069,soglievo,256.5014619841376,neutral,1,[256.0],[-1.0],[1],[0],[0],[1.0417158171096617],['neutral_5'],0.0008839061724756903,None,,,02,001,healthy,24,f,17,1,aurora,2022-03-24_14h32.23.302,pilot_AIM1,2022.1.1,84.80855381084959,
,,stimoli/01.full/F03-Anger-Face Forward.wmv,angry,full,femmina,2,6,720,576,,,,,,,,,,,,,,,,,0,0,0,0,,,,,0,24,24,33,101.30993247402021,rabbia,101.9803902718557,rabbia,3,,,,,,,,,,angry,[-276.0],[100.0],[1],[0],[0],[2.052573494745616],['rabbia_3'],0.010544974980689403,None,5.076997811751385,soddisfazione,260.0249987981925,disprezzo,1,[228.0],[43.0],[1],[0],[0],[5.74130510221687],['disprezzo_5'],0.0009345800389155556,None,,,02,001,healthy,24,f,17,1,aurora,2022-03-24_14h32.23.302,pilot_AIM1,2022.1.1,84.80855381084959,
,,stimoli/02.subtle/JF2_Fear.wmv,fear,subtle,femmina,6,10,1646,926,,,,,,,,,,,,,,,,,0,0,0,0,,,,,0,25,25,1,-101.0035408517495,tristezza,73.348483283569,tristezza,2,,,,,,,,,,fear,[-270.0],[-72.0],[1],[0],[0],[10.029696168478381],['tristezza_2'],0.01095645960310776,None,-0.4458725519324895,soglievo,256.5345980564805,neutral,1,[258.0],[-4.0],[1],[0],[0],[3.28800042848286],['neutral_5'],0.0009865367877637254,None,,,02,001,healthy,24,f,17,1,aurora,2022-03-24_14h32.23.302,pilot_AIM1,2022.1.1,84.80855381084959,
,,stimoli/01.full/M03-Anger-Face Forward.wmv,angry,full,maschio,4,6,720,576,,,,,,,,,,,,,,,,,0,0,0,0,,,,,0,26,26,35,103.44861505168652,rabbia,141.89080308462562,rabbia,4,,,,,,,,,,angry,[-289.0],[138.0],[1],[0],[0],[1.6533695875981493],['rabbia_4'],0.01059981821549627,None,4.6068552730737915,soddisfazione,259.3935234349539,disprezzo,1,[228.0],[39.0],[1],[0],[0],[3.8928927657603936],['disprezzo_5'],0.0009387494075099312,None,,,02,001,healthy,24,f,17,1,aurora,2022-03-24_14h32.23.302,pilot_AIM1,2022.1.1,84.80855381084959,
,,stimoli/01.full/M02-Anger-Face Forward.wmv,angry,full,maschio,3,6,720,576,,,,,,,,,,,,,,,,,0,0,0,0,,,,,0,27,27,34,100.85641334806225,rabbia,74.33034373659252,rabbia,2,,,,,,,,,,angry,[-270.0],[73.0],[1],[0],[0],[2.5831538901172735],['rabbia_2'],0.01056967047247781,None,0.0,soddisfazione,256.5014619841376,neutral,1,[257.0],[0.0],[1],[0],[0],[2.5153506535325505],['neutral_5'],0.0011112971292277507,None,,,02,001,healthy,24,f,17,1,aurora,2022-03-24_14h32.23.302,pilot_AIM1,2022.1.1,84.80855381084959,
,,stimoli/01.full/F03-Neutral-Face Forward.wmv,neutral,full,femmina,2,6,720,576,,,,,,,,,,,,,,,,,0,0,0,0,,,,,0,28,28,53,0.0,soddisfazione,0.0,neutral,1,,,,,,,,,,neutral,[-256.0],[0.0],[1],[0],[0],[0.7832797409090517],['neutral_1'],0.010576405606570916,None,0.11018405554297528,soddisfazione,256.51705596314645,neutral,1,[264.0],[1.0],[1],[0],[0],[1.5577633966628355],['neutral_5'],0.0009544647203938439,None,,,02,001,healthy,24,f,17,1,aurora,2022-03-24_14h32.23.302,pilot_AIM1,2022.1.1,84.80855381084959,
,,stimoli/02.subtle/JM2_Disgust.wmv,disgusted,subtle,maschio,8,10,1646,926,,,,,,,,,,,,,,,,,0,0,0,0,,,,,0,29,29,11,-169.1359400779123,colpa,100.80674580602232,colpa,3,,,,,,,,,,disgusted,[-355.0],[-19.0],[1],[0],[0],[2.8668983552802274],['colpa_3'],0.010970892033242308,None,-5.3321588816595575,soglievo,259.7960738733363,vergogna,2,[194.0],[-42.0],[1],[0],[0],[1.455474349081328],['vergogna_6'],0.0008271386135447756,None,,,02,001,healthy,24,f,17,1,aurora,2022-03-24_14h32.23.302,pilot_AIM1,2022.1.1,84.80855381084959,
,,stimoli/02.subtle/JF1_Sadness.wmv,sad,subtle,femmina,5,10,1646,926,,,,,,,,,,,,,,,,,0,0,0,0,,,,,0,30,30,16,-102.01147838636544,tristezza,96.1041102138717,tristezza,3,,,,,,,,,,sad,[-276.0],[-94.0],[1],[0],[0],[3.2093949989383646],['tristezza_3'],0.01088237312774254,None,-5.126596524849018,soglievo,259.64976410541954,vergogna,2,[201.0],[-41.0],[1],[0],[0],[2.889035458236094],['vergogna_6'],0.0011048827155946128,None,,,02,001,healthy,24,f,17,1,aurora,2022-03-24_14h32.23.302,pilot_AIM1,2022.1.1,84.80855381084959,
,,stimoli/01.full/F01-Neutral-Face Forward.wmv,neutral,full,femmina,1,6,720,576,,,,,,,,,,,,,,,,,0,0,0,0,,,,,0,31,31,52,-149.03624346792648,vergogna,5.830951894845301,neutral,1,,,,,,,,,,neutral,[-261.0],[-3.0],[1],[0],[0],[0.9834197034103909],['neutral_1'],0.010499753365820652,None,-0.3344073672432,soglievo,256.52095430977954,neutral,1,[258.0],[-3.0],[1],[0],[0],[1.3115871888769561],['neutral_5'],0.001013477324249834,None,,,02,001,healthy,24,f,17,1,aurora,2022-03-24_14h32.23.302,pilot_AIM1,2022.1.1,84.80855381084959,
,,stimoli/01.full/M02-Fear-Face Forward.wmv,fear,full,maschio,3,6,720,576,,,,,,,,,,,,,,,,,0,0,0,0,,,,,0,32,32,30,-79.1314746598313,sorpresa,127.283148923964,sorpresa,4,,,,,,,,,,fear,[-232.0],[-125.0],[1],[0],[0],[2.5825409929127545],['sorpresa_4'],0.010497829041923978,None,-9.881406120350205,soglievo,268.8977500835587,paura,3,[209.0],[-81.0],[1],[0],[0],[2.9515686127356275],['paura_7'],0.0010635097490876433,None,,,02,001,healthy,24,f,17,1,aurora,2022-03-24_14h32.23.302,pilot_AIM1,2022.1.1,84.80855381084959,
,,stimoli/01.full/F03-Fear-Face Forward.wmv,fear,full,femmina,2,6,720,576,,,,,,,,,,,,,,,,,0,0,0,0,,,,,0,33,33,29,-127.76762129172236,paura,140.41723540933285,paura,4,,,,,,,,,,fear,[-342.0],[-111.0],[1],[0],[0],[1.5715649693487421],['paura_4'],0.010537919125908957,None,-7.687377990511994,soglievo,266.17099766879187,sorpresa,2,[270.0],[-71.0],[1],[0],[0],[2.6181749839158783],['sorpresa_6'],0.0007848034847484087,None,,,02,001,healthy,24,f,17,1,aurora,2022-03-24_14h32.23.302,pilot_AIM1,2022.1.1,84.80855381084959,
,,stimoli/02.subtle/JM1_Fear.wmv,fear,subtle,maschio,7,10,1646,926,,,,,,,,,,,,,,,,,0,0,0,0,,,,,0,34,34,2,-102.77873318840604,tristezza,99.46356116689167,tristezza,3,,,,,,,,,,fear,[-278.0],[-97.0],[1],[0],[0],[5.02127147786166],['tristezza_3'],0.010784874043451964,None,-1.3551312910221491,soglievo,256.64372191814863,colpa,1,[209.0],[-11.0],[1],[0],[0],[2.5735300249073134],['colpa_5'],0.0006241224282348412,None,,,02,001,healthy,24,f,17,1,aurora,2022-03-24_14h32.23.302,pilot_AIM1,2022.1.1,84.80855381084959,
,,stimoli/01.full/M03-Fear-Face Forward.wmv,fear,full,maschio,4,6,720,576,,,,,,,,,,,,,,,,,0,0,0,0,,,,,0,35,35,31,-80.44571032759825,sorpresa,102.42070103255493,sorpresa,3,,,,,,,,,,fear,[-239.0],[-101.0],[1],[0],[0],[3.855175693991441],['sorpresa_3'],0.010512902913433209,None,-11.141061191816478,soglievo,271.72964505184194,paura,3,[201.0],[-90.0],[1],[0],[0],[1.3001066716956302],['paura_7'],0.0010737728107415023,None,,,02,001,healthy,24,f,17,1,aurora,2022-03-24_14h32.23.302,pilot_AIM1,2022.1.1,84.80855381084959,
,,stimoli/02.subtle/JF2_Happiness.wmv,happy,subtle,femmina,6,9,1646,926,,,,,,,,,,,,,,,,,0,0,0,0,,,,,0,36,36,13,30.96375653207352,gioia,99.12618221237011,gioia,3,,,,,,,,,,happy,[-171.0],[51.0],[1],[0],[0],[6.657812531070022],['gioia_3'],0.010884938893013896,None,-5.045660557152829,soglievo,260.6089023805595,sorpresa,1,[264.0],[-46.0],[1],[0],[0],[3.11739018043113],['sorpresa_5'],0.0010740935313151567,None,,,02,001,healthy,24,f,17,1,aurora,2022-03-24_14h32.23.302,pilot_AIM1,2022.1.1,84.80855381084959,
,,stimoli/02.subtle/JM2_Happiness.wmv,happy,subtle,maschio,8,10,1646,926,,,,,,,,,,,,,,,,,0,0,0,0,,,,,0,37,37,15,33.02386755579665,gioia,71.56116265125938,gioia,2,,,,,,,,,,happy,[-196.0],[39.0],[1],[0],[0],[3.4578685288990982],['gioia_2'],0.01096960915060663,None,-0.9290393194220559,soglievo,256.74111474401604,sollievo,1,[299.0],[-9.0],[1],[0],[0],[6.5765550622870705],['sollievo_5'],0.0009005836475353135,None,,,02,001,healthy,24,f,17,1,aurora,2022-03-24_14h32.23.302,pilot_AIM1,2022.1.1,84.80855381084959,
,,stimoli/02.subtle/JM2_Anger.wmv,angry,subtle,maschio,8,10,1646,926,,,,,,,,,,,,,,,,,0,0,0,0,,,,,0,38,38,7,100.40771131249006,rabbia,99.6393496566492,rabbia,3,,,,,,,,,,angry,[-274.0],[98.0],[1],[0],[0],[4.2219672492879],['rabbia_3'],0.010971533474503303,None,7.095260039183899,soddisfazione,263.1254453677941,disprezzo,2,[218.0],[59.0],[1],[0],[0],[2.4534255854273397],['disprezzo_6'],0.0011164286595430895,None,,,02,001,healthy,24,f,17,1,aurora,2022-03-24_14h32.23.302,pilot_AIM1,2022.1.1,84.80855381084959,
,,stimoli/01.full/F03-Disgust-Face Forward.wmv,disgusted,full,femmina,2,6,720,576,,,,,,,,,,,,,,,,,0,0,0,0,,,,,0,39,39,37,148.3639640013724,disgusto,131.54847015454038,disgusto,4,,,,,,,,,,disgusted,[-368.0],[69.0],[1],[0],[0],[3.854402436450755],['disgusto_4'],0.010559407410710264,None,4.838306290276845,soddisfazione,260.07114411252934,rabbia,1,[252.0],[43.0],[1],[0],[0],[3.599973444328498],['rabbia_5'],0.0010442665088703507,None,,,02,001,healthy,24,f,17,1,aurora,2022-03-24_14h32.23.302,pilot_AIM1,2022.1.1,84.80855381084959,
,,stimoli/02.subtle/JF2_Disgust.wmv,disgusted,subtle,femmina,6,10,1646,926,,,,,,,,,,,,,,,,,0,0,0,0,,,,,0,40,40,9,124.85445556610367,disprezzo,68.24221567329127,disprezzo,2,,,,,,,,,,disgusted,[-295.0],[56.0],[1],[0],[0],[4.199683256264052],['disprezzo_2'],0.010924387535624192,None,2.77215677689094,soddisfazione,257.4567924914781,disgusto,1,[219.0],[23.0],[1],[0],[0],[4.892124960471165],['disgusto_5'],0.0011026376710105978,None,,,02,001,healthy,24,f,17,1,aurora,2022-03-24_14h32.23.302,pilot_AIM1,2022.1.1,84.80855381084959,
,,stimoli/02.subtle/JF2_Anger.wmv,angry,subtle,femmina,6,9,1646,926,,,,,,,,,,,,,,,,,0,0,0,0,,,,,0,41,41,5,99.97205768733109,rabbia,92.39588735436226,rabbia,3,,,,,,,,,,angry,[-272.0],[91.0],[1],[0],[0],[2.2089389341426795],['rabbia_3'],0.010860884842713858,None,-8.485570762675511,soglievo,266.93070261773937,tristezza,2,[240.0],[-74.0],[1],[0],[0],[1.6398823211709441],['tristezza_6'],0.000938749407623618,None,,,02,001,healthy,24,f,17,1,aurora,2022-03-24_14h32.23.302,pilot_AIM1,2022.1.1,84.80855381084959,
,,stimoli/02.subtle/JM2_Neutral.wmv,neutral,subtle,maschio,8,10,1646,926,,,,,,,,,,,,,,,,,0,0,0,0,,,,,0,42,42,27,-147.65255650055798,vergogna,71.02112361825881,vergogna,2,,,,,,,,,,neutral,[-316.0],[-38.0],[1],[0],[0],[4.456570251618132],['vergogna_2'],0.010932726273495064,None,-0.9669255716443013,soglievo,256.55019002136794,colpa,1,[218.0],[-8.0],[1],[0],[0],[1.3352377726846498],['colpa_5'],0.0011690268499933154,None,,,02,001,healthy,24,f,17,1,aurora,2022-03-24_14h32.23.302,pilot_AIM1,2022.1.1,84.80855381084959,
,,stimoli/02.subtle/JM1_Happiness.wmv,happy,subtle,maschio,7,10,1646,926,,,,,,,,,,,,,,,,,0,0,0,0,,,,,0,43,43,14,33.04812486997523,gioia,99.02019995940222,gioia,3,,,,,,,,,,happy,[-173.0],[54.0],[1],[0],[0],[4.8471102105274895],['gioia_3'],0.01097249563645164,None,-1.0341075448834438,soglievo,256.7761671183679,sollievo,1,[298.0],[-10.0],[1],[0],[0],[7.140221322921434],['sollievo_5'],0.0009708214745387522,None,,,02,001,healthy,24,f,17,1,aurora,2022-03-24_14h32.23.302,pilot_AIM1,2022.1.1,84.80855381084959,
,,stimoli/02.subtle/JF1_Happiness.wmv,happy,subtle,femmina,5,10,1646,926,,,,,,,,,,,,,,,,,0,0,0,0,,,,,0,44,44,12,10.56801420900933,soddisfazione,136.31214179228496,soddisfazione,4,,,,,,,,,,happy,[-122.0],[25.0],[1],[0],[0],[2.5025901401484134],['soddisfazione_4'],0.010881410965566829,None,5.567544717563737,soddisfazione,263.133046195266,gioia,3,[339.0],[57.0],[0],[0],[0],[1.3484735941049166],['gioia_7'],0.001006742189929355,None,,,02,001,healthy,24,f,17,1,aurora,2022-03-24_14h32.23.302,pilot_AIM1,2022.1.1,84.80855381084959,
,,stimoli/02.subtle/JM1_Disgust.wmv,disgusted,subtle,maschio,7,10,1646,926,,,,,,,,,,,,,,,,,0,0,0,0,,,,,0,45,45,10,-102.39540683375846,tristezza,93.17188417113823,tristezza,3,,,,,,,,,,disgusted,[-276.0],[-91.0],[1],[0],[0],[3.7848435749065175],['tristezza_3'],0.010832340703018417,None,7.519570325189477,soddisfazione,264.83202223296183,rabbia,2,[244.0],[66.0],[1],[0],[0],[1.1016716602875931],['rabbia_6'],0.0010279097541570081,None,,,02,001,healthy,24,f,17,1,aurora,2022-03-24_14h32.23.302,pilot_AIM1,2022.1.1,84.80855381084959,
,,stimoli/02.subtle/JF1_Disgust.wmv,disgusted,subtle,femmina,5,10,1646,926,,,,,,,,,,,,,,,,,0,0,0,0,,,,,0,46,46,8,146.80243420778356,disgusto,96.79876032264049,disgusto,3,,,,,,,,,,disgusted,[-337.0],[53.0],[1],[0],[0],[4.009001025664702],['disgusto_3'],0.010895201954781442,None,4.10230406056117,soddisfazione,258.8300600780365,disprezzo,1,[232.0],[35.0],[1],[0],[0],[4.810951199783858],['disprezzo_5'],0.001150104330463364,None,,,02,001,healthy,24,f,17,1,aurora,2022-03-24_14h32.23.302,pilot_AIM1,2022.1.1,84.80855381084959,
,,stimoli/02.subtle/JF1_Neutral.wmv,neutral,subtle,femmina,5,10,1646,926,,,,,,,,,,,,,,,,,0,0,0,0,,,,,0,47,47,24,-11.07020257793936,soglievo,46.87216658103186,sollievo,1,,,,,,,,,,neutral,[-210.0],[-9.0],[1],[0],[0],[7.249539284754292],['sollievo_1'],0.010861205563060139,None,-0.11147024751704282,soglievo,256.5053605677667,neutral,1,[258.0],[-1.0],[1],[0],[0],[1.4986250704785107],['neutral_5'],0.0007623530377713905,None,,,02,001,healthy,24,f,17,1,aurora,2022-03-24_14h32.23.302,pilot_AIM1,2022.1.1,84.80855381084959,
,,stimoli/01.full/F01-Anger-Face Forward.wmv,angry,full,femmina,1,6,720,576,,,,,,,,,,,,,,,,,0,0,0,0,,,,,0,48,48,32,101.42710159394514,rabbia,95.90099061010788,rabbia,3,,,,,,,,,,angry,[-275.0],[94.0],[1],[0],[0],[2.9142938147736004],['rabbia_3'],0.010568066868700043,None,-5.0360442952388675,soglievo,260.6108209572273,sorpresa,1,[266.0],[-46.0],[1],[0],[0],[2.8784442994785877],['sorpresa_5'],0.0011427277545408288,None,,,02,001,healthy,24,f,17,1,aurora,2022-03-24_14h32.23.302,pilot_AIM1,2022.1.1,84.80855381084959,
,,stimoli/02.subtle/JF2_Sadness.wmv,sad,subtle,femmina,6,8,1646,926,,,,,,,,,,,,,,,,,0,0,0,0,,,,,0,49,49,17,-104.57421619803874,tristezza,103.32473082471591,tristezza,3,,,,,,,,,,sad,[-282.0],[-100.0],[1],[0],[0],[2.362087224476909],['tristezza_3'],0.010849980340026377,None,-3.1396601478202646,soglievo,257.7401792503451,vergogna,1,[218.0],[-26.0],[1],[0],[0],[6.493084620866284],['vergogna_5'],0.0009737079606111365,None,,,02,001,healthy,24,f,17,1,aurora,2022-03-24_14h32.23.302,pilot_AIM1,2022.1.1,84.80855381084959,
,,stimoli/01.full/M02-Neutral-Face Forward.wmv,neutral,full,maschio,3,6,720,576,,,,,,,,,,,,,,,,,0,0,0,0,,,,,0,50,50,54,32.94921511659045,gioia,64.35060217278468,gioia,2,,,,,,,,,,neutral,[-202.0],[35.0],[1],[0],[0],[4.491033291447366],['gioia_2'],0.010543050656451669,None,0.1125652373213464,soddisfazione,256.49561399758863,neutral,1,[253.0],[1.0],[1],[0],[0],[1.0431212150951978],['neutral_5'],0.0008598521221756528,None,,,02,001,healthy,24,f,17,1,aurora,2022-03-24_14h32.23.302,pilot_AIM1,2022.1.1,84.80855381084959,
,,stimoli/01.full/M02-Surprise-Face Forward.wmv,surprised,full,maschio,3,6,720,576,,,,,,,,,,,,,,,,,0,0,0,0,,,,,0,51,51,50,-79.84573341979974,sorpresa,136.13228860193308,sorpresa,4,,,,,,,,,,surprised,[-232.0],[-134.0],[1],[0],[0],[2.443261626605363],['sorpresa_4'],0.010573519120271158,None,0.11147024751704282,soddisfazione,256.5053605677667,neutral,1,[258.0],[1.0],[1],[0],[0],[1.3584037475570767],['neutral_5'],0.00119821243174556,None,,,02,001,healthy,24,f,17,1,aurora,2022-03-24_14h32.23.302,pilot_AIM1,2022.1.1,84.80855381084959,
,,stimoli/01.full/M03-Disgust-Face Forward.wmv,disgusted,full,maschio,4,6,720,576,,,,,,,,,,,,,,,,,0,0,0,0,,,,,0,52,52,39,124.84573341979976,disprezzo,96.26006440887103,disprezzo,3,,,,,,,,,,disgusted,[-311.0],[79.0],[1],[0],[0],[5.692584424906272],['disprezzo_3'],0.010521562371650361,None,5.225238608751462,soddisfazione,260.5743655849516,rabbia,1,[247.0],[46.0],[1],[0],[0],[2.8901121175324533],['rabbia_5'],0.0011780070283293753,None,,,02,001,healthy,24,f,17,1,aurora,2022-03-24_14h32.23.302,pilot_AIM1,2022.1.1,84.80855381084959,
,,stimoli/01.full/F03-Sadness-Face Forward.wmv,sad,full,femmina,2,6,720,576,,,,,,,,,,,,,,,,,0,0,0,0,,,,,0,53,53,45,-102.03720232036575,tristezza,139.05754204644924,tristezza,4,,,,,,,,,,sad,[-285.0],[-136.0],[1],[0],[0],[2.124713195539016],['tristezza_4'],0.010553955159593897,None,-1.3378747866891254,soglievo,256.6554110086129,colpa,1,[215.0],[-11.0],[1],[0],[0],[5.080879339110197],['colpa_5'],0.0010349656090511417,None,,,02,001,healthy,24,f,17,1,aurora,2022-03-24_14h32.23.302,pilot_AIM1,2022.1.1,84.80855381084959,
,,stimoli/01.full/F03-Surprise-Face Forward.wmv,surprised,full,femmina,2,6,720,576,,,,,,,,,,,,,,,,,0,0,0,0,,,,,0,54,54,49,-78.36636600105956,sorpresa,138.85243966167826,sorpresa,4,,,,,,,,,,surprised,[-228.0],[-136.0],[1],[0],[0],[2.1018647341322776],['sorpresa_4'],0.010601421818364543,None,0.3383569692652585,soddisfazione,256.5092590921427,neutral,1,[252.0],[3.0],[1],[0],[0],[12.181402819391224],['neutral_5'],0.0009490124689364166,None,,,02,001,healthy,24,f,17,1,aurora,2022-03-24_14h32.23.302,pilot_AIM1,2022.1.1,84.80855381084959,
,,stimoli/02.subtle/JM2_Sadness.wmv,sad,subtle,maschio,8,10,1646,926,,,,,,,,,,,,,,,,,0,0,0,0,,,,,0,55,55,19,-98.79054318281395,tristezza,98.15294188153507,tristezza,3,,,,,,,,,,sad,[-271.0],[-97.0],[1],[0],[0],[3.312756857168324],['tristezza_3'],0.010808928093865688,None,-1.2137120577538092,soglievo,256.6164453031021,colpa,1,[216.0],[-10.0],[1],[0],[0],[4.032787274316888],['colpa_5'],0.0010875637995013676,None,,,02,001,healthy,24,f,17,1,aurora,2022-03-24_14h32.23.302,pilot_AIM1,2022.1.1,84.80855381084959,
,,stimoli/02.subtle/JF2_Neutral.wmv,neutral,subtle,femmina,6,9,1646,926,,,,,,,,,,,,,,,,,1,0,1,0,,,,,0,0,0,25,0.0,soddisfazione,0.0,neutral,1,,,,,,,,,,neutral,[-256.0],[0.0],[1],[0],[0],[5.327199229757298],['neutral_1'],0.010832340703018417,None,0.0,soddisfazione,256.5014619841376,neutral,1,[257.0],[0.0],[1],[0],[0],[0.9487507609098884],['neutral_5'],0.0004012215606508107,None,,,02,001,healthy,24,f,17,1,aurora,2022-03-24_14h32.23.302,pilot_AIM1,2022.1.1,84.80855381084959,
,,stimoli/02.subtle/JM2_Happiness.wmv,happy,subtle,maschio,8,10,1646,926,,,,,,,,,,,,,,,,,1,0,1,0,,,,,0,1,1,15,33.690067525979785,gioia,100.9554357129917,gioia,3,,,,,,,,,,happy,[-172.0],[56.0],[1],[0],[0],[4.101795137746194],['gioia_3'],0.010946196541226527,None,0.9257040326643508,soddisfazione,256.74500968860133,soddisfazione,1,[301.0],[9.0],[1],[0],[0],[3.116539308487745],['soddisfazione_5'],0.0009442016589673585,None,,,02,001,healthy,24,f,17,1,aurora,2022-03-24_14h32.23.302,pilot_AIM1,2022.1.1,84.80855381084959,
,,stimoli/01.full/M02-Anger-Face Forward.wmv,angry,full,maschio,3,6,720,576,,,,,,,,,,,,,,,,,1,0,1,0,,,,,0,2,2,34,103.90268711422056,rabbia,104.04806581575652,rabbia,3,,,,,,,,,,angry,[-281.0],[101.0],[1],[0],[0],[3.8452676702656845],['rabbia_3'],0.010583140740664021,None,0.0,soddisfazione,256.5014619841376,neutral,1,[257.0],[0.0],[1],[0],[0],[1.7368336146053025],['neutral_5'],0.0010792250618578692,None,,,02,001,healthy,24,f,17,1,aurora,2022-03-24_14h32.23.302,pilot_AIM1,2022.1.1,84.80855381084959,
,,stimoli/01.full/F03-Anger-Face Forward.wmv,angry,full,femmina,2,6,720,576,,,,,,,,,,,,,,,,,1,0,1,0,,,,,0,3,3,33,103.62699485989154,rabbia,101.86756107809786,rabbia,3,,,,,,,,,,angry,[-280.0],[99.0],[1],[0],[0],[2.135988451489993],['rabbia_3'],0.010572556958550194,None,-7.480886179523676,soglievo,264.5751311064591,tristezza,2,[239.0],[-65.0],[1],[0],[0],[1.7254999874919577],['tristezza_6'],0.0010519638044570456,None,,,02,001,healthy,24,f,17,1,aurora,2022-03-24_14h32.23.302,pilot_AIM1,2022.1.1,84.80855381084959,
,,stimoli/01.full/F03-Surprise-Face Forward.wmv,surprised,full,femmina,2,6,720,576,,,,,,,,,,,,,,,,,1,0,1,0,,,,,0,4,4,49,-81.05054191579113,sorpresa,128.56515857727553,sorpresa,4,,,,,,,,,,surprised,[-236.0],[-127.0],[1],[0],[0],[1.570022302915504],['sorpresa_4'],0.010589875874529753,None,0.336370574910119,soddisfazione,256.5151067676132,neutral,1,[254.0],[3.0],[1],[0],[0],[2.796595421776601],['neutral_5'],0.0011802520739365718,None,,,02,001,healthy,24,f,17,1,aurora,2022-03-24_14h32.23.302,pilot_AIM1,2022.1.1,84.80855381084959,
,,stimoli/01.full/M02-Joy-Face Forward.wmv,happy,full,maschio,3,6,720,576,,,,,,,,,,,,,,,,,1,0,1,0,,,,,0,5,5,42,30.68895873739359,gioia,143.0314650697531,gioia,4,,,,,,,,,,happy,[-133.0],[73.0],[1],[0],[0],[3.054089862083856],['gioia_4'],0.010588592991780388,None,10.143343289851584,soddisfazione,273.5616932247642,orgoglio,3,[275.0],[95.0],[1],[0],[0],[2.019040224145101],['orgoglio_7'],0.0008659458148940757,None,,,02,001,healthy,24,f,17,1,aurora,2022-03-24_14h32.23.302,pilot_AIM1,2022.1.1,84.80855381084959,
,,stimoli/01.full/F01-Sadness-Face Forward.wmv,sad,full,femmina,1,6,720,576,,,,,,,,,,,,,,,,,1,0,1,0,,,,,0,6,6,44,-102.2647737278924,tristezza,141.22322755127783,tristezza,4,,,,,,,,,,sad,[-286.0],[-138.0],[1],[0],[0],[3.6203254160227516],['tristezza_4'],0.010550427231919457,None,-4.685899839502703,soglievo,259.55346270084704,paura,1,[232.0],[-40.0],[1],[0],[0],[1.242169123707754],['paura_5'],0.001041700743144247,None,,,02,001,healthy,24,f,17,1,aurora,2022-03-24_14h32.23.302,pilot_AIM1,2022.1.1,84.80855381084959,
,,stimoli/01.full/F01-Fear-Face Forward.wmv,fear,full,femmina,1,6,720,576,,,,,,,,,,,,,,,,,1,0,1,0,,,,,0,7,7,28,-122.04723548662449,paura,145.11374848717816,paura,4,,,,,,,,,,fear,[-333.0],[-123.0],[1],[0],[0],[1.205627172481627],['paura_4'],0.010619382176855652,None,-10.094622737469402,soglievo,273.2105415242977,sorpresa,3,[272.0],[-94.0],[1],[0],[0],[1.7954722579825102],['sorpresa_7'],0.0008906413067961694,None,,,02,001,healthy,24,f,17,1,aurora,2022-03-24_14h32.23.302,pilot_AIM1,2022.1.1,84.80855381084959,
,,stimoli/01.full/F01-Anger-Face Forward.wmv,angry,full,femmina,1,6,720,576,,,,,,,,,,,,,,,,,1,0,1,0,,,,,0,8,8,32,101.76828893202065,rabbia,98.0612053770501,rabbia,3,,,,,,,,,,angry,[-276.0],[96.0],[1],[0],[0],[1.9498152328205833],['rabbia_3'],0.0105122614722859,None,4.578597321223466,soddisfazione,259.3993060900511,disprezzo,1,[231.0],[39.0],[1],[0],[0],[3.830330425679904],['disprezzo_5'],0.0011141836148453876,None,,,02,001,healthy,24,f,17,1,aurora,2022-03-24_14h32.23.302,pilot_AIM1,2022.1.1,84.80855381084959,
,,stimoli/01.full/M02-Fear-Face Forward.wmv,fear,full,maschio,3,6,720,576,,,,,,,,,,,,,,,,,1,0,1,0,,,,,0,9,9,30,-121.82744657667313,paura,102.39628899525607,paura,3,,,,,,,,,,fear,[-310.0],[-87.0],[1],[0],[0],[6.1518230725168905],['paura_3'],0.01055363443879287,None,-11.10188771111257,soglievo,276.81401698613456,sorpresa,3,[274.0],[-104.0],[1],[0],[0],[1.0424999791532628],['sorpresa_7'],0.0008011602390070038,None,,,02,001,healthy,24,f,17,1,aurora,2022-03-24_14h32.23.302,pilot_AIM1,2022.1.1,84.80855381084959,
,,stimoli/02.subtle/JF1_Neutral.wmv,neutral,subtle,femmina,5,10,1646,926,,,,,,,,,,,,,,,,,1,0,1,0,,,,,0,10,10,24,45.0,euforia,1.4142135623730951,neutral,1,,,,,,,,,,neutral,[-256.0],[1.0],[1],[0],[0],[6.140030494121675],['neutral_1'],0.010975702843325053,None,0.4398821788302125,soddisfazione,256.5482410775798,neutral,1,[265.0],[4.0],[1],[0],[0],[0.7001245679089152],['neutral_5'],0.000806612490578118,None,,,02,001,healthy,24,f,17,1,aurora,2022-03-24_14h32.23.302,pilot_AIM1,2022.1.1,84.80855381084959,
,,stimoli/01.full/F01-Surprise-Face Forward.wmv,surprised,full,femmina,1,6,720,576,,,,,,,,,,,,,,,,,1,0,1,0,,,,,0,11,11,48,-82.1082975717643,sorpresa,101.96568050084302,sorpresa,3,,,,,,,,,,surprised,[-242.0],[-101.0],[1],[0],[0],[3.595277452246137],['sorpresa_3'],0.010562935338157331,None,-4.550683193559426,soglievo,259.4050886162413,paura,1,[234.0],[-39.0],[1],[0],[0],[4.342032240124809],['paura_5'],0.0011401619894968462,None,,,02,001,healthy,24,f,17,1,aurora,2022-03-24_14h32.23.302,pilot_AIM1,2022.1.1,84.80855381084959,
,,stimoli/02.subtle/JM1_Happiness.wmv,happy,subtle,maschio,7,10,1646,926,,,,,,,,,,,,,,,,,1,0,1,0,,,,,0,12,12,14,33.86369056881828,gioia,91.52595260361949,gioia,3,,,,,,,,,,happy,[-180.0],[51.0],[1],[0],[0],[4.222955389678873],['gioia_3'],0.010978589329170063,None,-3.8682040383217218,soglievo,259.3954510009765,speranza,2,[306.0],[-38.0],[1],[0],[0],[2.8413693104955655],['speranza_6'],0.0009397115695719549,None,,,02,001,healthy,24,f,17,1,aurora,2022-03-24_14h32.23.302,pilot_AIM1,2022.1.1,84.80855381084959,
,,stimoli/02.subtle/JM1_Sadness.wmv,sad,subtle,maschio,7,10,1646,926,,,,,,,,,,,,,,,,,1,0,1,0,,,,,0,13,13,18,-101.97613244420336,tristezza,101.20276676059801,tristezza,3,,,,,,,,,,sad,[-277.0],[-99.0],[1],[0],[0],[2.9741139931070393],['tristezza_3'],0.010900333485324154,None,-4.494357652631996,soglievo,258.90925051067603,vergogna,2,[202.0],[-36.0],[1],[0],[0],[3.0777895161543256],['vergogna_6'],0.0011164286597704631,None,,,02,001,healthy,24,f,17,1,aurora,2022-03-24_14h32.23.302,pilot_AIM1,2022.1.1,84.80855381084959,
,,stimoli/01.full/M03-Surprise-Face Forward.wmv,surprised,full,maschio,4,6,720,576,,,,,,,,,,,,,,,,,1,0,1,0,,,,,0,14,14,51,-78.69006752597979,sorpresa,101.9803902718557,sorpresa,3,,,,,,,,,,surprised,[-236.0],[-100.0],[1],[0],[0],[3.9626956957361017],['sorpresa_3'],0.010586027226281658,None,-0.22293965119752188,soglievo,256.51120833211166,neutral,1,[258.0],[-2.0],[1],[0],[0],[0.9238205016199572],['neutral_5'],0.0008758881551784725,None,,,02,001,healthy,24,f,17,1,aurora,2022-03-24_14h32.23.302,pilot_AIM1,2022.1.1,84.80855381084959,
,,stimoli/02.subtle/JM2_Fear.wmv,fear,subtle,maschio,8,10,1646,926,,,,,,,,,,,,,,,,,1,0,1,0,,,,,0,15,15,3,-77.87626175221061,sorpresa,138.07968713753664,sorpresa,4,,,,,,,,,,fear,[-227.0],[-135.0],[1],[0],[0],[2.85470134811726],['sorpresa_4'],0.010979230770317372,None,-10.44696507324966,soglievo,270.12219457127173,paura,3,[205.0],[-85.0],[1],[0],[0],[1.6887216651305152],['paura_7'],0.00111290073255077,None,,,02,001,healthy,24,f,17,1,aurora,2022-03-24_14h32.23.302,pilot_AIM1,2022.1.1,84.80855381084959,
,,stimoli/02.subtle/JM2_Neutral.wmv,neutral,subtle,maschio,8,10,1646,926,,,,,,,,,,,,,,,,,1,0,1,0,,,,,0,16,16,27,-167.19573393471325,colpa,45.12205669071391,colpa,1,,,,,,,,,,neutral,[-300.0],[-10.0],[1],[0],[0],[3.4106786513566476],['colpa_1'],0.010971854195304331,None,-0.11278682186231857,soglievo,256.49366463910957,neutral,1,[252.0],[-1.0],[1],[0],[0],[1.4397186253399923],['neutral_5'],0.0007216215124117298,None,,,02,001,healthy,24,f,17,1,aurora,2022-03-24_14h32.23.302,pilot_AIM1,2022.1.1,84.80855381084959,
,,stimoli/02.subtle/JF2_Disgust.wmv,disgusted,subtle,femmina,6,10,1646,926,,,,,,,,,,,,,,,,,1,0,1,0,,,,,0,17,17,9,148.62699485989154,disgusto,96.04165762834376,disgusto,3,,,,,,,,,,disgusted,[-338.0],[50.0],[1],[0],[0],[3.0668577520432336],['disgusto_3'],0.010954214558296371,None,-5.574955325355115,soglievo,261.1187469332679,tristezza,1,[246.0],[-49.0],[1],[0],[0],[2.854726043609162],['tristezza_5'],0.0011250881175328686,None,,,02,001,healthy,24,f,17,1,aurora,2022-03-24_14h32.23.302,pilot_AIM1,2022.1.1,84.80855381084959,
,,stimoli/01.full/M03-Anger-Face Forward.wmv,angry,full,maschio,4,6,720,576,,,,,,,,,,,,,,,,,1,0,1,0,,,,,0,18,18,35,102.52880770915151,rabbia,138.29316685939332,rabbia,4,,,,,,,,,,angry,[-286.0],[135.0],[1],[0],[0],[3.125990625976101],['rabbia_4'],0.01057704704749085,None,0.9835219191391023,soddisfazione,256.5345980564805,invidia,1,[210.0],[8.0],[1],[0],[0],[2.8907615768937376],['invidia_5'],0.0011462556822152692,None,,,02,001,healthy,24,f,17,1,aurora,2022-03-24_14h32.23.302,pilot_AIM1,2022.1.1,84.80855381084959,
,,stimoli/01.full/F03-Fear-Face Forward.wmv,fear,full,femmina,2,6,720,576,,,,,,,,,,,,,,,,,1,0,1,0,,,,,0,19,19,29,-121.37300514010845,paura,144.06248644251562,paura,4,,,,,,,,,,fear,[-331.0],[-122.0],[1],[0],[0],[1.2312373595964345],['paura_4'],0.010503922734642401,None,-10.893546058037181,soglievo,276.06883199665987,sorpresa,3,[274.0],[-102.0],[1],[0],[0],[3.031788870864375],['sorpresa_7'],0.0006626089084420528,None,,,02,001,healthy,24,f,17,1,aurora,2022-03-24_14h32.23.302,pilot_AIM1,2022.1.1,84.80855381084959,
,,stimoli/01.full/F01-Joy-Face Forward.wmv,happy,full,femmina,1,6,720,576,,,,,,,,,,,,,,,,,1,0,1,0,,,,,0,20,20,40,37.34934904464059,gioia,95.60334722173695,gioia,3,,,,,,,,,,happy,[-180.0],[58.0],[1],[0],[0],[4.290953945152978],['gioia_3'],0.01057961281298958,None,-1.0902724945420172,soglievo,256.863777127099,sollievo,2,[322.0],[-11.0],[1],[0],[0],[3.646241249938157],['sollievo_6'],0.0010144394859707973,None,,,02,001,healthy,24,f,17,1,aurora,2022-03-24_14h32.23.302,pilot_AIM1,2022.1.1,84.80855381084959,
,,stimoli/02.subtle/JF2_Fear.wmv,fear,subtle,femmina,6,10,1646,926,,,,,,,,,,,,,,,,,1,0,1,0,,,,,0,21,21,1,-124.38034472384487,paura,92.0869154657707,paura,3,,,,,,,,,,fear,[-308.0],[-76.0],[1],[0],[0],[4.86808405960528],['paura_3'],0.010965760502358535,None,0.6598070643459423,soddisfazione,256.587217140683,neutral,1,[265.0],[6.0],[1],[0],[0],[1.255261262266913],['neutral_5'],0.0008184791552139359,None,,,02,001,healthy,24,f,17,1,aurora,2022-03-24_14h32.23.302,pilot_AIM1,2022.1.1,84.80855381084959,
,,stimoli/02.subtle/JF1_Fear.wmv,fear,subtle,femmina,5,10,1646,926,,,,,,,,,,,,,,,,,1,0,1,0,,,,,0,22,22,0,-120.14138555207535,paura,71.69379331573968,paura,2,,,,,,,,,,fear,[-292.0],[-62.0],[1],[0],[0],[3.526002428496895],['paura_2'],0.01097666500527339,None,-1.352224364832504,soglievo,256.645670136864,colpa,1,[210.0],[-11.0],[1],[0],[0],[1.4890162791398325],['colpa_5'],0.0009493331899648183,None,,,02,001,healthy,24,f,17,1,aurora,2022-03-24_14h32.23.302,pilot_AIM1,2022.1.1,84.80855381084959,
,,stimoli/01.full/F03-Joy-Face Forward.wmv,happy,full,femmina,2,6,720,576,,,,,,,,,,,,,,,,,1,0,1,0,,,,,0,23,23,41,29.315885972959222,gioia,149.093930124603,gioia,4,,,,,,,,,,happy,[-126.0],[73.0],[1],[0],[0],[2.65454919823037],['gioia_4'],0.010592441640028483,None,0.6160599083992302,soddisfazione,256.659307253799,soddisfazione,1,[302.0],[6.0],[1],[0],[0],[2.043567658270831],['soddisfazione_5'],0.0010516430838833912,None,,,02,001,healthy,24,f,17,1,aurora,2022-03-24_14h32.23.302,pilot_AIM1,2022.1.1,84.80855381084959,
,,stimoli/02.subtle/JF1_Anger.wmv,angry,subtle,femmina,5,10,1646,926,,,,,,,,,,,,,,,,,1,0,1,0,,,,,0,24,24,4,101.65029943753767,rabbia,99.04039579888602,rabbia,3,,,,,,,,,,angry,[-276.0],[97.0],[1],[0],[0],[2.2435010766594132],['rabbia_3'],0.01093978212793445,None,-8.066048966069065,soglievo,266.12403123355847,tristezza,2,[245.0],[-71.0],[1],[0],[0],[2.3732175146842565],['tristezza_6'],0.0008877548207237851,None,,,02,001,healthy,24,f,17,1,aurora,2022-03-24_14h32.23.302,pilot_AIM1,2022.1.1,84.80855381084959,
,,stimoli/01.full/M02-Sadness-Face Forward.wmv,sad,full,maschio,3,6,720,576,,,,,,,,,,,,,,,,,1,0,1,0,,,,,0,25,25,46,-102.58769338164879,tristezza,105.53672346628922,tristezza,3,,,,,,,,,,sad,[-279.0],[-103.0],[1],[0],[0],[3.7248421893932573],['tristezza_3'],0.01055748308681359,None,-4.700171158595591,soglievo,260.0999807766237,sorpresa,1,[267.0],[-43.0],[1],[0],[0],[1.3716979401394838],['sorpresa_5'],0.0009445223795410129,None,,,02,001,healthy,24,f,17,1,aurora,2022-03-24_14h32.23.302,pilot_AIM1,2022.1.1,84.80855381084959,
,,stimoli/02.subtle/JF1_Surprise.wmv,surprised,subtle,femmina,5,10,1646,926,,,,,,,,,,,,,,,,,1,0,1,0,,,,,0,26,26,20,-81.06940989958102,sorpresa,70.8590149522275,sorpresa,2,,,,,,,,,,surprised,[-245.0],[-70.0],[1],[0],[0],[9.037490001533115],['sorpresa_2'],0.010966081222932189,None,-3.0073395837364054,soglievo,258.2111539031573,speranza,1,[296.0],[-29.0],[1],[0],[0],[3.7873551384905113],['speranza_5'],0.0010458701117386227,None,,,02,001,healthy,24,f,17,1,aurora,2022-03-24_14h32.23.302,pilot_AIM1,2022.1.1,84.80855381084959,
,,stimoli/02.subtle/JF2_Happiness.wmv,happy,subtle,femmina,6,9,1646,926,,,,,,,,,,,,,,,,,1,0,1,0,,,,,0,27,27,13,57.43956201884656,euforia,98.47842403288143,euforia,3,,,,,,,,,,happy,[-203.0],[83.0],[1],[0],[0],[2.6197477980922486],['euforia_3'],0.010896805558104461,None,0.824342820845153,soddisfazione,256.7099530598687,soddisfazione,1,[300.0],[8.0],[1],[0],[0],[3.8686324919547133],['soddisfazione_5'],0.0009015458094836504,None,,,02,001,healthy,24,f,17,1,aurora,2022-03-24_14h32.23.302,pilot_AIM1,2022.1.1,84.80855381084959,
,,stimoli/01.full/M02-Neutral-Face Forward.wmv,neutral,full,maschio,3,6,720,576,,,,,,,,,,,,,,,,,1,0,1,0,,,,,0,28,28,54,146.30993247402023,disgusto,3.605551275463989,neutral,1,,,,,,,,,,neutral,[-259.0],[2.0],[1],[0],[0],[0.9476009772999987],['neutral_1'],0.010519317326725286,None,0.33375804725282576,soddisfazione,256.52290346088006,neutral,1,[259.0],[3.0],[1],[0],[0],[1.0644433668230704],['neutral_5'],0.0008162341102888604,None,,,02,001,healthy,24,f,17,1,aurora,2022-03-24_14h32.23.302,pilot_AIM1,2022.1.1,84.80855381084959,
,,stimoli/01.full/M03-Sadness-Face Forward.wmv,sad,full,maschio,4,6,720,576,,,,,,,,,,,,,,,,,1,0,1,0,,,,,0,29,29,47,-101.76828893202065,tristezza,98.0612053770501,tristezza,3,,,,,,,,,,sad,[-276.0],[-96.0],[1],[0],[0],[1.5950545513790075],['tristezza_3'],0.010530542550441169,None,0.4467416640153826,soddisfazione,256.5326489942362,neutral,1,[257.0],[4.0],[1],[0],[0],[0.9480631357887432],['neutral_5'],0.0009746701227868471,None,,,02,001,healthy,24,f,17,1,aurora,2022-03-24_14h32.23.302,pilot_AIM1,2022.1.1,84.80855381084959,
,,stimoli/01.full/M03-Neutral-Face Forward.wmv,neutral,full,maschio,4,6,720,576,,,,,,,,,,,,,,,,,1,0,1,0,,,,,0,30,30,55,0.0,soddisfazione,0.0,neutral,1,,,,,,,,,,neutral,[-256.0],[0.0],[1],[0],[0],[0.5458159101826823],['neutral_1'],0.010597573170798569,None,0.22250676302755734,soddisfazione,256.5131575572684,neutral,1,[259.0],[2.0],[1],[0],[0],[0.8077593876544142],['neutral_5'],0.0009413151728949742,None,,,02,001,healthy,24,f,17,1,aurora,2022-03-24_14h32.23.302,pilot_AIM1,2022.1.1,84.80855381084959,
,,stimoli/02.subtle/JM1_Anger.wmv,angry,subtle,maschio,7,10,1646,926,,,,,,,,,,,,,,,,,1,0,1,0,,,,,0,31,31,6,102.65255650055798,rabbia,100.43903623591775,rabbia,3,,,,,,,,,,angry,[-278.0],[98.0],[1],[0],[0],[2.9359113502403034],['rabbia_3'],0.010792571339607093,None,-4.6763597650773825,soglievo,259.55538907909425,paura,1,[233.0],[-40.0],[1],[0],[0],[2.4335540532999858],['paura_5'],0.0010468322736869595,None,,,02,001,healthy,24,f,17,1,aurora,2022-03-24_14h32.23.302,pilot_AIM1,2022.1.1,84.80855381084959,
,,stimoli/02.subtle/JM2_Sadness.wmv,sad,subtle,maschio,8,10,1646,926,,,,,,,,,,,,,,,,,1,0,1,0,,,,,0,32,32,19,-146.80243420778356,vergogna,96.79876032264049,vergogna,3,,,,,,,,,,sad,[-337.0],[-53.0],[1],[0],[0],[1.7478933462646182],['vergogna_3'],0.010877883038347136,None,-1.2240825221762244,soglievo,256.60865145197266,colpa,1,[212.0],[-10.0],[1],[0],[0],[1.2999803077507295],['colpa_5'],0.0009406737317476654,None,,,02,001,healthy,24,f,17,1,aurora,2022-03-24_14h32.23.302,pilot_AIM1,2022.1.1,84.80855381084959,
,,stimoli/02.subtle/JM1_Surprise.wmv,surprised,subtle,maschio,7,10,1646,926,,,,,,,,,,,,,,,,,1,0,1,0,,,,,0,33,33,22,-56.80243420778355,interesse,96.79876032264049,interesse,3,,,,,,,,,,surprised,[-203.0],[-81.0],[1],[0],[0],[2.7267447044205255],['interesse_3'],0.010780063233141846,None,-4.936520284836199,soglievo,260.434252739535,sorpresa,1,[265.0],[-45.0],[1],[0],[0],[0.945857860446722],['sorpresa_5'],0.0009358629213238601,None,,,02,001,healthy,24,f,17,1,aurora,2022-03-24_14h32.23.302,pilot_AIM1,2022.1.1,84.80855381084959,
,,stimoli/01.full/M03-Fear-Face Forward.wmv,fear,full,maschio,4,6,720,576,,,,,,,,,,,,,,,,,1,0,1,0,,,,,0,34,34,31,-124.94566440000565,paura,101.25709851659784,paura,3,,,,,,,,,,fear,[-314.0],[-83.0],[1],[0],[0],[3.1864031753914333],['paura_3'],0.010566783986405426,None,-5.243813294327303,soglievo,260.9731786985015,sorpresa,1,[267.0],[-48.0],[1],[0],[0],[2.381782360234638],['sorpresa_5'],0.0010734520897131006,None,,,02,001,healthy,24,f,17,1,aurora,2022-03-24_14h32.23.302,pilot_AIM1,2022.1.1,84.80855381084959,
,,stimoli/02.subtle/JM2_Disgust.wmv,disgusted,subtle,maschio,8,10,1646,926,,,,,,,,,,,,,,,,,1,0,1,0,,,,,0,35,35,11,-102.52880770915151,tristezza,101.41498903022176,tristezza,3,,,,,,,,,,disgusted,[-278.0],[-99.0],[1],[0],[0],[2.465349017857079],['tristezza_3'],0.010965119060983852,None,-1.2267028838161125,soglievo,256.60670295220274,colpa,1,[211.0],[-10.0],[1],[0],[0],[2.07864680251123],['colpa_5'],0.0009281656252824177,None,,,02,001,healthy,24,f,17,1,aurora,2022-03-24_14h32.23.302,pilot_AIM1,2022.1.1,84.80855381084959,
,,stimoli/02.subtle/JM1_Neutral.wmv,neutral,subtle,maschio,7,10,1646,926,,,,,,,,,,,,,,,,,1,0,1,0,,,,,0,36,36,26,-144.65989307844234,vergogna,67.42403132415029,vergogna,2,,,,,,,,,,neutral,[-311.0],[-39.0],[1],[0],[0],[2.9615298760927544],['vergogna_2'],0.010852866825871388,None,-5.009139573207328,soglievo,260.2268241361755,tristezza,1,[246.0],[-44.0],[1],[0],[0],[3.961970867017044],['tristezza_5'],0.001123805235238251,None,,,02,001,healthy,24,f,17,1,aurora,2022-03-24_14h32.23.302,pilot_AIM1,2022.1.1,84.80855381084959,
,,stimoli/02.subtle/JF2_Surprise.wmv,surprised,subtle,femmina,6,10,1646,926,,,,,,,,,,,,,,,,,1,0,1,0,,,,,0,37,37,21,-82.28810758734112,sorpresa,96.87620966986684,sorpresa,3,,,,,,,,,,surprised,[-243.0],[-96.0],[1],[0],[0],[3.3367082769666467],['sorpresa_3'],0.010820474038155226,None,-4.425474912078862,soglievo,259.2585582001103,paura,1,[235.0],[-38.0],[1],[0],[0],[3.821040751410237],['paura_5'],0.0007530521384069289,None,,,02,001,healthy,24,f,17,1,aurora,2022-03-24_14h32.23.302,pilot_AIM1,2022.1.1,84.80855381084959,
,,stimoli/02.subtle/JM1_Fear.wmv,fear,subtle,maschio,7,10,1646,926,,,,,,,,,,,,,,,,,1,0,1,0,,,,,0,38,38,2,-127.32103619263131,paura,127.00393694685216,paura,4,,,,,,,,,,fear,[-333.0],[-101.0],[1],[0],[0],[1.418189929499249],['paura_4'],0.010826888451447303,None,-10.769422286889546,soglievo,275.70273847025896,sorpresa,3,[275.0],[-101.0],[1],[0],[0],[1.749004643393846],['sorpresa_7'],0.0009544647205075307,None,,,02,001,healthy,24,f,17,1,aurora,2022-03-24_14h32.23.302,pilot_AIM1,2022.1.1,84.80855381084959,
,,stimoli/01.full/F03-Disgust-Face Forward.wmv,disgusted,full,femmina,2,6,720,576,,,,,,,,,,,,,,,,,1,0,1,0,,,,,0,39,39,37,126.06940989958102,disprezzo,100.20977996183805,disprezzo,3,,,,,,,,,,disgusted,[-315.0],[81.0],[1],[0],[0],[3.0790781718151266],['disprezzo_3'],0.010577047047718224,None,2.892484905999003,soddisfazione,257.54805376861225,disgusto,1,[219.0],[24.0],[1],[0],[0],[1.4526651567136923],['disgusto_5'],0.0008887169824447483,None,,,02,001,healthy,24,f,17,1,aurora,2022-03-24_14h32.23.302,pilot_AIM1,2022.1.1,84.80855381084959,
,,stimoli/01.full/F01-Disgust-Face Forward.wmv,disgusted,full,femmina,1,6,720,576,,,,,,,,,,,,,,,,,1,0,1,0,,,,,0,40,40,36,149.55642432007429,disgusto,132.23085872821065,disgusto,4,,,,,,,,,,disgusted,[-370.0],[67.0],[1],[0],[0],[2.771643032760494],['disgusto_4'],0.010518034444203295,None,4.489219939274794,soddisfazione,259.2450578121018,disprezzo,1,[228.0],[38.0],[1],[0],[0],[3.339558842300903],['disprezzo_5'],0.000811102579746148,None,,,02,001,healthy,24,f,17,1,aurora,2022-03-24_14h32.23.302,pilot_AIM1,2022.1.1,84.80855381084959,
,,stimoli/02.subtle/JF1_Happiness.wmv,happy,subtle,femmina,5,10,1646,926,,,,,,,,,,,,,,,,,1,0,1,0,,,,,0,41,41,12,9.122896205378472,soddisfazione,138.75518008348374,soddisfazione,4,,,,,,,,,,happy,[-119.0],[22.0],[1],[0],[0],[1.596411199822569],['soddisfazione_4'],0.010980834374095139,None,4.827712985811889,soddisfazione,261.48040079516477,gioia,3,[336.0],[50.0],[1],[0],[0],[1.3584072754842964],['gioia_7'],0.0009397115691172075,None,,,02,001,healthy,24,f,17,1,aurora,2022-03-24_14h32.23.302,pilot_AIM1,2022.1.1,84.80855381084959,
,,stimoli/01.full/F01-Neutral-Face Forward.wmv,neutral,full,femmina,1,6,720,576,,,,,,,,,,,,,,,,,1,0,1,0,,,,,0,42,42,52,0.0,soddisfazione,0.0,neutral,1,,,,,,,,,,neutral,[-256.0],[0.0],[1],[0],[0],[1.1371048801497636],['neutral_1'],0.010492056069324462,None,0.22164601045943727,soddisfazione,256.51705596314645,neutral,1,[261.0],[2.0],[1],[0],[0],[0.7569229160694704],['neutral_5'],0.0009307313903264003,None,,,02,001,healthy,24,f,17,1,aurora,2022-03-24_14h32.23.302,pilot_AIM1,2022.1.1,84.80855381084959,
,,stimoli/01.full/M02-Disgust-Face Forward.wmv,disgusted,full,maschio,3,6,720,576,,,,,,,,,,,,,,,,,1,0,1,0,,,,,0,43,43,38,144.72757855140162,disgusto,100.43903623591775,disgusto,3,,,,,,,,,,disgusted,[-338.0],[58.0],[1],[0],[0],[4.057918625468119],['disgusto_3'],0.010564859662736126,None,4.802506042583536,soddisfazione,259.70945304320367,disprezzo,1,[232.0],[41.0],[1],[0],[0],[1.9812025614037339],['disprezzo_5'],0.0009050737376128382,None,,,02,001,healthy,24,f,17,1,aurora,2022-03-24_14h32.23.302,pilot_AIM1,2022.1.1,84.80855381084959,
,,stimoli/02.subtle/JF1_Sadness.wmv,sad,subtle,femmina,5,10,1646,926,,,,,,,,,,,,,,,,,1,0,1,0,,,,,0,44,44,16,-102.72435568542238,tristezza,95.34149149242423,tristezza,3,,,,,,,,,,sad,[-278.0],[-93.0],[1],[0],[0],[1.80788799664424],['tristezza_3'],0.010923425373675855,None,-5.422425235199403,soglievo,259.9653823107992,vergogna,2,[197.0],[-43.0],[1],[0],[0],[3.7365921119394443],['vergogna_6'],0.000716489982096391,None,,,02,001,healthy,24,f,17,1,aurora,2022-03-24_14h32.23.302,pilot_AIM1,2022.1.1,84.80855381084959,
,,stimoli/02.subtle/JF2_Anger.wmv,angry,subtle,femmina,6,9,1646,926,,,,,,,,,,,,,,,,,1,0,1,0,,,,,0,45,45,5,100.86405992208773,rabbia,100.80674580602232,rabbia,3,,,,,,,,,,angry,[-275.0],[99.0],[1],[0],[0],[3.6205986700356334],['rabbia_3'],0.01093978212793445,None,0.9751531430925626,soddisfazione,256.54239415737896,invidia,1,[214.0],[8.0],[1],[0],[0],[1.572773765562033],['invidia_5'],0.0010644719109222933,None,,,02,001,healthy,24,f,17,1,aurora,2022-03-24_14h32.23.302,pilot_AIM1,2022.1.1,84.80855381084959,
,,stimoli/02.subtle/JM1_Disgust.wmv,disgusted,subtle,maschio,7,10,1646,926,,,,,,,,,,,,,,,,,1,0,1,0,,,,,0,46,46,10,-104.17233770013196,tristezza,102.1077861869505,tristezza,3,,,,,,,,,,disgusted,[-281.0],[-99.0],[1],[0],[0],[1.617600573191794],['tristezza_3'],0.010846452412806684,None,8.033045790559362,soddisfazione,265.84958153060916,rabbia,2,[240.0],[70.0],[1],[0],[0],[3.5037838624907636],['rabbia_6'],0.0009474088656133972,None,,,02,001,healthy,24,f,17,1,aurora,2022-03-24_14h32.23.302,pilot_AIM1,2022.1.1,84.80855381084959,
,,stimoli/01.full/F03-Sadness-Face Forward.wmv,sad,full,femmina,2,6,720,576,,,,,,,,,,,,,,,,,1,0,1,0,,,,,0,47,47,45,-100.56801420900933,tristezza,136.31214179228496,tristezza,4,,,,,,,,,,sad,[-281.0],[-134.0],[1],[0],[0],[2.017019042469201],['tristezza_4'],0.010563256058503612,None,-0.8624519664738218,soglievo,256.50341128335896,colpa,1,[209.0],[-7.0],[1],[0],[0],[1.3492093273271166],['colpa_5'],0.0011058448776566365,None,,,02,001,healthy,24,f,17,1,aurora,2022-03-24_14h32.23.302,pilot_AIM1,2022.1.1,84.80855381084959,
,,stimoli/01.full/F03-Neutral-Face Forward.wmv,neutral,full,femmina,2,6,720,576,,,,,,,,,,,,,,,,,1,0,1,0,,,,,0,48,48,53,80.96051719664487,orgoglio,44.553338819890925,orgoglio,1,,,,,,,,,,neutral,[-249.0],[44.0],[1],[0],[0],[5.256121114388861],['orgoglio_1'],0.01057576416496886,None,0.3370301098578076,soddisfazione,256.5131575572684,neutral,1,[254.0],[3.0],[1],[0],[0],[0.7594101048821358],['neutral_5'],0.0006943602556930273,None,,,02,001,healthy,24,f,17,1,aurora,2022-03-24_14h32.23.302,pilot_AIM1,2022.1.1,84.80855381084959,
,,stimoli/02.subtle/JF1_Disgust.wmv,disgusted,subtle,femmina,5,10,1646,926,,,,,,,,,,,,,,,,,1,0,1,0,,,,,0,49,49,8,145.10929849249518,disgusto,92.65527507918802,disgusto,3,,,,,,,,,,disgusted,[-332.0],[53.0],[1],[0],[0],[2.81898461118044],['disgusto_3'],0.01096351545811558,None,-4.578597321223466,soglievo,259.3993060900511,paura,1,[231.0],[-39.0],[1],[0],[0],[2.1857659034158132],['paura_5'],0.0010962232572637731,None,,,02,001,healthy,24,f,17,1,aurora,2022-03-24_14h32.23.302,pilot_AIM1,2022.1.1,84.80855381084959,
,,stimoli/02.subtle/JF2_Sadness.wmv,sad,subtle,femmina,6,8,1646,926,,,,,,,,,,,,,,,,,1,0,1,0,,,,,0,50,50,17,-147.7500258358164,vergogna,99.32270636667126,vergogna,3,,,,,,,,,,sad,[-340.0],[-53.0],[1],[0],[0],[2.7747646070624796],['vergogna_3'],0.010981796535816102,None,-1.5551595050671605,soglievo,256.64372191814863,colpa,2,[186.0],[-12.0],[1],[0],[0],[0.9795511706624893],['colpa_6'],0.0009884611113193387,None,,,02,001,healthy,24,f,17,1,aurora,2022-03-24_14h32.23.302,pilot_AIM1,2022.1.1,84.80855381084959,
,,stimoli/02.subtle/JM2_Surprise.wmv,surprised,subtle,maschio,8,10,1646,926,,,,,,,,,,,,,,,,,1,0,1,0,,,,,0,51,51,23,-57.188633201931886,interesse,90.4267659490264,interesse,3,,,,,,,,,,surprised,[-207.0],[-76.0],[1],[0],[0],[5.798192610724072],['interesse_3'],0.010937216363345215,None,-3.0292502312984664,soglievo,258.2034081881957,speranza,1,[292.0],[-29.0],[1],[0],[0],[4.139322022156648],['speranza_5'],0.0009400322906003566,None,,,02,001,healthy,24,f,17,1,aurora,2022-03-24_14h32.23.302,pilot_AIM1,2022.1.1,84.80855381084959,
,,stimoli/01.full/M03-Joy-Face Forward.wmv,happy,full,maschio,4,6,720,576,,,,,,,,,,,,,,,,,1,0,1,0,,,,,0,52,52,43,31.914940063767816,gioia,134.30189872075525,gioia,4,,,,,,,,,,happy,[-142.0],[71.0],[1],[0],[0],[3.3479957203035156],['gioia_4'],0.010531183991588478,None,0.9014326368610103,soddisfazione,256.7742198897701,soddisfazione,2,[316.0],[9.0],[1],[0],[0],[3.032787274316888],['soddisfazione_6'],0.00106607551470006,None,,,02,001,healthy,24,f,17,1,aurora,2022-03-24_14h32.23.302,pilot_AIM1,2022.1.1,84.80855381084959,
,,stimoli/02.subtle/JM2_Anger.wmv,angry,subtle,maschio,8,10,1646,926,,,,,,,,,,,,,,,,,1,0,1,0,,,,,0,53,53,7,104.03624346792648,rabbia,140.18559127100045,rabbia,4,,,,,,,,,,angry,[-290.0],[136.0],[1],[0],[0],[3.019181020520591],['rabbia_4'],0.010977947888477502,None,-5.348753672386548,soglievo,260.75083892482496,tristezza,1,[246.0],[-47.0],[1],[0],[0],[4.16545049387787],['tristezza_5'],0.0007665224065931397,None,,,02,001,healthy,24,f,17,1,aurora,2022-03-24_14h32.23.302,pilot_AIM1,2022.1.1,84.80855381084959,
,,stimoli/01.full/M03-Disgust-Face Forward.wmv,disgusted,full,maschio,4,6,720,576,,,,,,,,,,,,,,,,,1,0,1,0,,,,,0,54,54,39,122.38067770656923,disprezzo,97.09788875150684,disprezzo,3,,,,,,,,,,disgusted,[-308.0],[82.0],[1],[0],[0],[8.306171178885961],['disprezzo_3'],0.010559728132193413,None,3.019131849137267,soddisfazione,257.64122340960887,disgusto,1,[218.0],[25.0],[1],[0],[0],[1.7018907766509983],['disgusto_5'],0.0010849980340026377,None,,,02,001,healthy,24,f,17,1,aurora,2022-03-24_14h32.23.302,pilot_AIM1,2022.1.1,84.80855381084959,
,,stimoli/01.full/M02-Surprise-Face Forward.wmv,surprised,full,maschio,3,6,720,576,,,,,,,,,,,,,,,,,1,0,1,0,,,,,0,55,55,50,-79.23424445525708,sorpresa,144.5441109142811,sorpresa,4,,,,,,,,,,surprised,[-229.0],[-142.0],[1],[0],[0],[1.7464898726034335],['sorpresa_4'],0.010509374986213516,None,4.391058780970053,soddisfazione,260.36320784627003,gioia,2,[317.0],[44.0],[1],[0],[0],[1.454985891497472],['gioia_6'],0.0007607494349031185,None,,,02,001,healthy,24,f,17,1,aurora,2022-03-24_14h32.23.302,pilot_AIM1,2022.1.1,84.80855381084959,
