emotion_practice,emotion_comp,file,file_emotion,file_emotion_level,file_gender,file_id,file_duration,size_w,size_h,practice.thisRepN,practice.thisTrialN,practice.thisN,practice.thisIndex,istr_loop_practice.thisRepN,istr_loop_practice.thisTrialN,istr_loop_practice.thisN,istr_loop_practice.thisIndex,loop_emotion_identication.thisRepN,loop_emotion_identication.thisTrialN,loop_emotion_identication.thisN,loop_emotion_identication.thisIndex,loop_practice.thisRepN,loop_practice.thisTrialN,loop_practice.thisN,loop_practice.thisIndex,random_by_pt_num.thisRepN,random_by_pt_num.thisTrialN,random_by_pt_num.thisN,random_by_pt_num.thisIndex,loop_itr_exp.thisRepN,loop_itr_exp.thisTrialN,loop_itr_exp.thisN,loop_itr_exp.thisIndex,loop_exp.thisRepN,loop_exp.thisTrialN,loop_exp.thisN,loop_exp.thisIndex,wheelresp_angle,wheelresp_cake,wheelresp_norm,wheelresp_emotion,wheelresp_level,Wheelresp.x,Wheelresp.y,Wheelresp.leftButton,Wheelresp.midButton,Wheelresp.rightButton,Wheelresp.time,Wheelresp.clicked_name,Wheelresp.started,Wheelresp.stopped,file_emotion,wheelresp.x,wheelresp.y,wheelresp.leftButton,wheelresp.midButton,wheelresp.rightButton,wheelresp.time,wheelresp.clicked_name,wheelresp.started,wheelresp.stopped,compound_angle,compound_cake,compound_norm,compound_emotion,compound_level,compound.x,compound.y,compound.leftButton,compound.midButton,compound.rightButton,compound.time,compound.clicked_name,compound.started,compound.stopped,kb_end_training.keys,kb_end_training.rt,participant,session,group,age,gender,education,practice,experimenter,date,expName,psychopyVersion,frameRate,
,,,,,,,,,,0,0,0,0,0,0,0,0,,,,,,,,,,,,,,,,,,,,,,,,,,,,,,,,,,,,,,,,,,,,,,,,,,,,,,,,,,,,,08,001,healthy,24,f,18,1,aurora,2022-03-31_15h07.34.961,pilot_AIM1,2022.1.1,60.02787724769824,
COLPA,VERGOGNA,,,,,,,,,0,0,0,0,,,,,0,0,0,8,,,,,,,,,,,,,,,,,-169.25227390162794,colpa,219.85677155821242,Colpa,4,[-216.0],[-41.0],[1],[0],[0],[1.4579216335768024],['Colpa_4'],0.01607899760347209,None,,,,,,,,,,,,,,,,,,,,,,,,,,,08,001,healthy,24,f,18,1,aurora,2022-03-31_15h07.34.961,pilot_AIM1,2022.1.1,60.02787724769824,
INVIDIA,NEUTRO,,,,,,,,,0,0,0,0,,,,,0,1,1,7,,,,,,,,,,,,,,,,,166.0382633555028,invidia,186.51005334833832,Invidia,4,[-181.0],[45.0],[1],[0],[0],[3.1574070035356954],['Invidia_4'],0.016085412037568858,None,,,,,,,,,,,,,,,,,,,,,,,,,,,08,001,healthy,24,f,18,1,aurora,2022-03-31_15h07.34.961,pilot_AIM1,2022.1.1,60.02787724769824,
RABBIA,DISPREZZO,,,,,,,,,0,0,0,0,,,,,0,2,2,4,,,,,,,,,,,,,,,,,0.0,soddisfazione,0.0,Neutral,1,[0.0],[0.0],[1],[0],[0],[0.35425539967059194],['Neutral_1'],0.016088298532849876,None,,,,,,,,,,,,,,,,,,,,,,,,,,,08,001,healthy,24,f,18,1,aurora,2022-03-31_15h07.34.961,pilot_AIM1,2022.1.1,60.02787724769824,
VERGOGNA,TRISTEZZA,,,,,,,,,0,0,0,0,,,,,0,3,3,9,,,,,,,,,,,,,,,,,-143.8870147555428,vergogna,196.81717404738845,Vergogna,4,[-159.0],[-114.0],[1],[0],[0],[2.3229141543466767],['Vergogna_4'],0.016099523792377113,None,,,,,,,,,,,,,,,,,,,,,,,,,,,08,001,healthy,24,f,18,1,aurora,2022-03-31_15h07.34.961,pilot_AIM1,2022.1.1,60.02787724769824,
DISGUSTO,NEUTRO,,,,,,,,,0,0,0,0,,,,,0,4,4,6,,,,,,,,,,,,,,,,,146.54252570043687,disgusto,204.9634113689563,Disgusto,4,[-171.0],[113.0],[1],[0],[0],[1.041828524218431],['Disgusto_4'],0.01609375080170139,None,,,,,,,,,,,,,,,,,,,,,,,,,,,08,001,healthy,24,f,18,1,aurora,2022-03-31_15h07.34.961,pilot_AIM1,2022.1.1,60.02787724769824,
SODDISFAZIONE,EUFORIA,,,,,,,,,0,0,0,0,,,,,0,5,5,0,,,,,,,,,,,,,,,,,7.475737385548222,soddisfazione,222.89459392277777,Soddisfazione,4,[221.0],[29.0],[1],[0],[0],[2.2906408917602903],['Soddisfazione_4'],0.01607739399514685,None,,,,,,,,,,,,,,,,,,,,,,,,,,,08,001,healthy,24,f,18,1,aurora,2022-03-31_15h07.34.961,pilot_AIM1,2022.1.1,60.02787724769824,
SPERANZA,NEUTRO,,,,,,,,,0,0,0,0,,,,,0,6,6,14,,,,,,,,,,,,,,,,,-33.92552830802987,speranza,202.46728130737569,Speranza,4,[168.0],[-113.0],[1],[0],[0],[1.3715756544005444],['Speranza_4'],0.016074828221462667,None,,,,,,,,,,,,,,,,,,,,,,,,,,,08,001,healthy,24,f,18,1,aurora,2022-03-31_15h07.34.961,pilot_AIM1,2022.1.1,60.02787724769824,
DISPREZZO,INVIDIA,,,,,,,,,0,0,0,0,,,,,0,7,7,5,,,,,,,,,,,,,,,,,126.44816976617996,disprezzo,190.20515240129538,Disprezzo,4,[-113.0],[153.0],[1],[0],[0],[1.8367738219250214],['Disprezzo_4'],0.016084770594147813,None,,,,,,,,,,,,,,,,,,,,,,,,,,,08,001,healthy,24,f,18,1,aurora,2022-03-31_15h07.34.961,pilot_AIM1,2022.1.1,60.02787724769824,
GIOIA,SODDISFAZIONE,,,,,,,,,0,0,0,0,,,,,0,8,8,2,,,,,,,,,,,,,,,,,28.37924308610794,gioia,197.76754030932378,Gioia,4,[174.0],[94.0],[1],[0],[0],[2.023297865789573],['Gioia_4'],0.01608124265544575,None,,,,,,,,,,,,,,,,,,,,,,,,,,,08,001,healthy,24,f,18,1,aurora,2022-03-31_15h07.34.961,pilot_AIM1,2022.1.1,60.02787724769824,
ORGOGLIO,NEUTRO,,,,,,,,,0,0,0,0,,,,,0,9,9,3,,,,,,,,,,,,,,,,,76.0417099254886,orgoglio,178.2638493918495,Orgoglio,4,[43.0],[173.0],[1],[0],[0],[1.2881392624940418],['Orgoglio_4'],0.016071300282646916,None,,,,,,,,,,,,,,,,,,,,,,,,,,,08,001,healthy,24,f,18,1,aurora,2022-03-31_15h07.34.961,pilot_AIM1,2022.1.1,60.02787724769824,
SOLLIEVO,GIOIA,,,,,,,,,0,0,0,0,,,,,0,10,10,15,,,,,,,,,,,,,,,,,-12.075288583193544,soglievo,205.54804791094466,Sollievo,4,[201.0],[-43.0],[1],[0],[0],[3.938185702996293],['Sollievo_4'],0.016095675131964526,None,,,,,,,,,,,,,,,,,,,,,,,,,,,08,001,healthy,24,f,18,1,aurora,2022-03-31_15h07.34.961,pilot_AIM1,2022.1.1,60.02787724769824,
SORPRESA,GIOIA,,,,,,,,,0,0,0,0,,,,,0,11,11,12,,,,,,,,,,,,,,,,,-34.55218245052608,speranza,202.76587484091104,Speranza,4,[167.0],[-115.0],[1],[0],[0],[1.6062599103005368],['Speranza_4'],0.016080921933735226,None,,,,,,,,,,,,,,,,,,,,,,,,,,,08,001,healthy,24,f,18,1,aurora,2022-03-31_15h07.34.961,pilot_AIM1,2022.1.1,60.02787724769824,
EUFORIA,GIOIA,,,,,,,,,0,0,0,0,,,,,0,12,12,1,,,,,,,,,,,,,,,,,57.28232758136067,euforia,196.1147623204332,Euforia,4,[106.0],[165.0],[1],[0],[0],[2.2367439306625556],['Euforia_4'],0.016088298532849876,None,,,,,,,,,,,,,,,,,,,,,,,,,,,08,001,healthy,24,f,18,1,aurora,2022-03-31_15h07.34.961,pilot_AIM1,2022.1.1,60.02787724769824,
PAURA,NEUTRO,,,,,,,,,0,0,0,0,,,,,0,13,13,10,,,,,,,,,,,,,,,,,-120.74722022546106,paura,226.8942484947558,Paura,4,[-116.0],[-195.0],[1],[0],[0],[1.7558448322753293],['Paura_4'],0.01608156337715627,None,,,,,,,,,,,,,,,,,,,,,,,,,,,08,001,healthy,24,f,18,1,aurora,2022-03-31_15h07.34.961,pilot_AIM1,2022.1.1,60.02787724769824,
INTERESSE,SORPRESA,,,,,,,,,0,0,0,0,,,,,0,14,14,13,,,,,,,,,,,,,,,,,-51.66130163977016,interesse,195.0640920313116,Interesse,4,[121.0],[-153.0],[1],[0],[0],[1.3410419863192828],['Interesse_4'],0.016088298532849876,None,,,,,,,,,,,,,,,,,,,,,,,,,,,08,001,healthy,24,f,18,1,aurora,2022-03-31_15h07.34.961,pilot_AIM1,2022.1.1,60.02787724769824,
TRISTEZZA,NEUTRO,,,,,,,,,0,0,0,0,,,,,0,15,15,11,,,,,,,,,,,,,,,,,-102.01147838636544,tristezza,192.2082204277434,Tristezza,4,[-40.0],[-188.0],[1],[0],[0],[1.2733504641483933],['Tristezza_4'],0.016087657089542517,None,,,,,,,,,,,,,,,,,,,,,,,,,,,08,001,healthy,24,f,18,1,aurora,2022-03-31_15h07.34.961,pilot_AIM1,2022.1.1,60.02787724769824,
,,stimoli/01.full/M02-Sadness-Face Forward.wmv,sad,full,maschio,3,6,720,576,0,0,0,0,,,,,,,,,0,0,0,46,,,,,,,,,,,,,102.61932229343078,rabbia,68.65857557508748,rabbia,2,,,,,,,,,,sad,[-357.0],[67.0],[1],[0],[0],[3.901578848788631],['rabbia_2'],0.015425046055611347,None,6.019150394271151,soddisfazione,347.92815350298974,disgusto,3,[246.0],[62.0],[1],[0],[0],[3.6753199519687314],['disgusto_7'],0.005249187932690802,None,,,08,001,healthy,24,f,18,1,aurora,2022-03-31_15h07.34.961,pilot_AIM1,2022.1.1,60.02787724769824,
,,stimoli/02.subtle/JM2_Surprise.wmv,surprised,subtle,maschio,8,10,1646,926,0,0,0,0,,,,,,,,,0,1,1,23,,,,,,,,,,,,,-79.74880124918258,sorpresa,95.524865872714,sorpresa,3,,,,,,,,,,surprised,[-325.0],[-94.0],[1],[0],[0],[11.987546055636244],['sorpresa_3'],0.015825627459776115,None,0.7568354961583119,soddisfazione,342.7520970030672,soddisfazione,2,[415.0],[10.0],[1],[0],[0],[6.905644317067981],['soddisfazione_6'],0.005494540033623707,None,,,08,001,healthy,24,f,18,1,aurora,2022-03-31_15h07.34.961,pilot_AIM1,2022.1.1,60.02787724769824,
,,stimoli/01.full/M02-Neutral-Face Forward.wmv,neutral,full,maschio,3,6,720,576,0,0,0,0,,,,,,,,,0,2,2,54,,,,,,,,,,,,,97.1250163489018,rabbia,8.06225774829855,neutral,1,,,,,,,,,,neutral,[-343.0],[8.0],[1],[0],[0],[1.2202633253451722],['neutral_1'],0.01546962637200977,None,0.2550240406875387,soddisfazione,342.49817517762045,neutral,1,[332.0],[3.0],[1],[0],[0],[1.4063476597578983],['neutral_5'],0.0056430341811619655,None,,,08,001,healthy,24,f,18,1,aurora,2022-03-31_15h07.34.961,pilot_AIM1,2022.1.1,60.02787724769824,
,,stimoli/02.subtle/JM1_Neutral.wmv,neutral,subtle,maschio,7,10,1646,926,0,0,0,0,,,,,,,,,0,3,3,26,,,,,,,,,,,,,-122.0053832080835,paura,75.47184905645283,paura,2,,,,,,,,,,neutral,[-382.0],[-64.0],[1],[0],[0],[5.5815402852114175],['paura_2'],0.015846795092102184,None,0.0,soddisfazione,342.504014575012,neutral,1,[345.0],[0.0],[1],[0],[0],[1.7955681392496672],['neutral_5'],0.005570551076857555,None,,,08,001,healthy,24,f,18,1,aurora,2022-03-31_15h07.34.961,pilot_AIM1,2022.1.1,60.02787724769824,
,,stimoli/02.subtle/JM2_Neutral.wmv,neutral,subtle,maschio,8,10,1646,926,,,,,,,,,,,,,,,,,0,0,0,0,,,,,0,0,0,27,12.15494169722223,soddisfazione,66.49060083951716,soddisfazione,2,,,,,,,,,,neutral,[-277.0],[14.0],[1],[0],[0],[2.9239536775232864],['soddisfazione_2'],0.015777519204789314,None,0.16901360862850212,soddisfazione,342.49671531271656,neutral,1,[336.0],[2.0],[1],[0],[0],[1.674217952204799],['neutral_5'],0.004935842830946058,None,n,5.801525988023059,08,001,healthy,24,f,18,1,aurora,2022-03-31_15h07.34.961,pilot_AIM1,2022.1.1,60.02787724769824,
,,stimoli/02.subtle/JF1_Disgust.wmv,disgusted,subtle,femmina,5,10,1646,926,,,,,,,,,,,,,,,,,0,0,0,0,,,,,0,1,1,8,142.5350637233281,disgusto,134.80726983364065,disgusto,4,,,,,,,,,,disgusted,[-449.0],[82.0],[1],[0],[0],[5.3364768336300585],['disgusto_4'],0.015879508705893386,None,-0.16802233216643697,soglievo,342.50255473499755,neutral,1,[340.0],[-2.0],[1],[0],[0],[2.1413426949859513],['neutral_5'],0.005725138936895746,None,,,08,001,healthy,24,f,18,1,aurora,2022-03-31_15h07.34.961,pilot_AIM1,2022.1.1,60.02787724769824,
,,stimoli/01.full/M03-Disgust-Face Forward.wmv,disgusted,full,maschio,4,6,720,576,,,,,,,,,,,,,,,,,0,0,0,0,,,,,0,2,2,39,143.88065915052024,disgusto,137.41178988718545,disgusto,4,,,,,,,,,,disgusted,[-453.0],[81.0],[1],[0],[0],[3.622623131475393],['disgusto_4'],0.015365712540869936,None,8.286614915828604,soddisfazione,355.94522050450405,rabbia,3,[324.0],[97.0],[1],[0],[0],[2.1091945138628034],['rabbia_7'],0.0058649735983635765,None,,,08,001,healthy,24,f,18,1,aurora,2022-03-31_15h07.34.961,pilot_AIM1,2022.1.1,60.02787724769824,
,,stimoli/01.full/M03-Joy-Face Forward.wmv,happy,full,maschio,4,6,720,576,,,,,,,,,,,,,,,,,0,0,0,0,,,,,0,3,3,43,33.57289840605487,gioia,135.6244815658294,gioia,4,,,,,,,,,,happy,[-229.0],[75.0],[1],[0],[0],[4.304857522591647],['gioia_4'],0.01545455245195626,None,1.2390285158735312,soddisfazione,343.0699637100281,soddisfazione,3,[444.0],[17.0],[1],[0],[0],[7.273654829042698],['soddisfazione_7'],0.005756248941679587,None,,,08,001,healthy,24,f,18,1,aurora,2022-03-31_15h07.34.961,pilot_AIM1,2022.1.1,60.02787724769824,
,,stimoli/02.subtle/JM1_Happiness.wmv,happy,subtle,maschio,7,10,1646,926,,,,,,,,,,,,,,,,,0,0,0,0,,,,,0,4,4,14,-10.669782804496677,soglievo,140.42791745233566,sollievo,4,,,,,,,,,,happy,[-204.0],[-26.0],[1],[0],[0],[1.8697270145171387],['sollievo_4'],0.01574223981765499,None,0.759846425610507,soddisfazione,342.7477206342881,soddisfazione,2,[412.0],[10.0],[1],[0],[0],[1.7929654826477872],['soddisfazione_6'],0.005860162772705735,None,,,08,001,healthy,24,f,18,1,aurora,2022-03-31_15h07.34.961,pilot_AIM1,2022.1.1,60.02787724769824,
,,stimoli/01.full/M03-Anger-Face Forward.wmv,angry,full,maschio,4,6,720,576,,,,,,,,,,,,,,,,,0,0,0,0,,,,,0,5,5,35,101.88865803962798,rabbia,135.9154148726332,rabbia,4,,,,,,,,,,angry,[-370.0],[133.0],[1],[0],[0],[12.23192027628238],['rabbia_4'],0.015463532659850898,None,7.947715313731303,soddisfazione,353.0354089889568,disprezzo,3,[274.0],[86.0],[1],[0],[0],[1.6245484238454537],['disprezzo_7'],0.005492294981650048,None,,,08,001,healthy,24,f,18,1,aurora,2022-03-31_15h07.34.961,pilot_AIM1,2022.1.1,60.02787724769824,
,,stimoli/01.full/F03-Disgust-Face Forward.wmv,disgusted,full,femmina,2,6,720,576,,,,,,,,,,,,,,,,,0,0,0,0,,,,,0,6,6,37,146.6114864238885,disgusto,105.39449701004318,disgusto,3,,,,,,,,,,disgusted,[-430.0],[58.0],[1],[0],[0],[3.37288836832181],['disgusto_3'],0.015446534409647938,None,7.2255743610233,soddisfazione,351.64328516267733,disprezzo,3,[289.0],[80.0],[1],[0],[0],[5.587501218742318],['disprezzo_7'],0.005741495743450287,None,,,08,001,healthy,24,f,18,1,aurora,2022-03-31_15h07.34.961,pilot_AIM1,2022.1.1,60.02787724769824,
,,stimoli/01.full/F01-Neutral-Face Forward.wmv,neutral,full,femmina,1,6,720,576,,,,,,,,,,,,,,,,,0,0,0,0,,,,,0,7,7,52,-33.690067525979785,speranza,3.605551275463989,neutral,1,,,,,,,,,,neutral,[-339.0],[-2.0],[1],[0],[0],[2.235835646805981],['neutral_1'],0.015464815546465616,None,-0.4139796420965884,soglievo,342.5478068824847,neutral,1,[350.0],[-5.0],[1],[0],[0],[1.3457909125431797],['neutral_5'],0.0055102553972119495,None,,,08,001,healthy,24,f,18,1,aurora,2022-03-31_15h07.34.961,pilot_AIM1,2022.1.1,60.02787724769824,
,,stimoli/01.full/M02-Fear-Face Forward.wmv,fear,full,maschio,3,6,720,576,,,,,,,,,,,,,,,,,0,0,0,0,,,,,0,8,8,30,-121.492161124727,paura,130.17296186228538,paura,4,,,,,,,,,,fear,[-410.0],[-111.0],[1],[0],[0],[7.10014759612659],['paura_4'],0.015452628121920498,None,-0.4250350779087667,soglievo,342.5215321698769,neutral,1,"[346.0, 332.0]","[-15.0, -5.0]","[1, 1]","[0, 0]","[0, 0]","[6.0553620178268375, 6.558162559718312]",['neutral_5'],0.0057931319374802115,None,,,08,001,healthy,24,f,18,1,aurora,2022-03-31_15h07.34.961,pilot_AIM1,2022.1.1,60.02787724769824,
,,stimoli/01.full/M02-Joy-Face Forward.wmv,happy,full,maschio,3,6,720,576,,,,,,,,,,,,,,,,,0,0,0,0,,,,,0,9,9,42,12.757532160876679,soddisfazione,108.6830253535482,soddisfazione,3,,,,,,,,,,happy,[-236.0],[24.0],[1],[0],[0],[1.6337566645970583],['soddisfazione_3'],0.015791951681194405,None,-1.4415762759926731,soglievo,343.1297130823852,sollievo,2,[413.0],[-19.0],[1],[0],[0],[4.5255474077989675],['sollievo_6'],0.005778058017085641,None,,,08,001,healthy,24,f,18,1,aurora,2022-03-31_15h07.34.961,pilot_AIM1,2022.1.1,60.02787724769824,
,,stimoli/02.subtle/JM1_Surprise.wmv,surprised,subtle,maschio,7,10,1646,926,,,,,,,,,,,,,,,,,0,0,0,0,,,,,0,10,10,22,-78.08485292873497,sorpresa,111.40017953306898,sorpresa,3,,,,,,,,,,surprised,[-319.0],[-109.0],[1],[0],[0],[9.563890649294535],['sorpresa_3'],0.015812798591696264,None,-7.113875812485109,soglievo,351.4199766660968,paura,3,[291.0],[-79.0],[1],[0],[0],[3.1925378964760966],['paura_7'],0.005715838007517959,None,,,08,001,healthy,24,f,18,1,aurora,2022-03-31_15h07.34.961,pilot_AIM1,2022.1.1,60.02787724769824,
,,stimoli/01.full/F01-Joy-Face Forward.wmv,happy,full,femmina,1,6,720,576,,,,,,,,,,,,,,,,,0,0,0,0,,,,,0,11,11,40,12.094757077012101,soddisfazione,114.54256850621083,soddisfazione,3,,,,,,,,,,happy,[-230.0],[24.0],[1],[0],[0],[1.5875907000970528],['soddisfazione_3'],0.015789385907737596,None,-1.8334258019718475,soglievo,343.55203390461827,sollievo,3,[439.0],[-25.0],[1],[0],[0],[4.738298148024569],['sollievo_7'],0.005846051018124854,None,,,08,001,healthy,24,f,18,1,aurora,2022-03-31_15h07.34.961,pilot_AIM1,2022.1.1,60.02787724769824,
,,stimoli/02.subtle/JF2_Disgust.wmv,disgusted,subtle,femmina,6,10,1646,926,,,,,,,,,,,,,,,,,0,0,0,0,,,,,0,12,12,9,-146.65029943753765,vergogna,140.06427096158393,vergogna,4,,,,,,,,,,disgusted,[-459.0],[-77.0],[1],[0],[0],[4.821356409045848],['vergogna_4'],0.015838777049566488,None,-7.8996916142652305,soglievo,353.2959099678342,paura,3,[285.0],[-87.0],[1],[0],[0],[7.589372309144892],['paura_7'],0.005735081309467205,None,,,08,001,healthy,24,f,18,1,aurora,2022-03-31_15h07.34.961,pilot_AIM1,2022.1.1,60.02787724769824,
,,stimoli/02.subtle/JF2_Surprise.wmv,surprised,subtle,femmina,6,10,1646,926,,,,,,,,,,,,,,,,,0,0,0,0,,,,,0,13,13,21,-80.08724855327617,sorpresa,104.5609869884557,sorpresa,3,,,,,,,,,,surprised,[-324.0],[-103.0],[1],[0],[0],[3.785616465595467],['sorpresa_3'],0.015799649002019578,None,-7.520595777480783,soglievo,353.3411948810951,tristezza,3,[317.0],[-87.0],[1],[0],[0],[1.4121261026411958],['tristezza_7'],0.0056452792327945645,None,,,08,001,healthy,24,f,18,1,aurora,2022-03-31_15h07.34.961,pilot_AIM1,2022.1.1,60.02787724769824,
,,stimoli/02.subtle/JM2_Anger.wmv,angry,subtle,maschio,8,10,1646,926,,,,,,,,,,,,,,,,,0,0,0,0,,,,,0,14,14,7,99.46232220802563,rabbia,109.48972554536796,rabbia,3,,,,,,,,,,angry,[-360.0],[108.0],[1],[0],[0],[7.034640509459905],['rabbia_3'],0.015713054143134286,None,2.1610794882263713,soddisfazione,343.0583040825568,invidia,3,[241.0],[22.0],[1],[0],[0],[4.192027628250116],['invidia_7'],0.005662598204935421,None,,,08,001,healthy,24,f,18,1,aurora,2022-03-31_15h07.34.961,pilot_AIM1,2022.1.1,60.02787724769824,
,,stimoli/02.subtle/JM1_Anger.wmv,angry,subtle,maschio,7,10,1646,926,,,,,,,,,,,,,,,,,0,0,0,0,,,,,0,15,15,6,101.80988295702826,rabbia,112.37882362794157,rabbia,3,,,,,,,,,,angry,[-365.0],[110.0],[1],[0],[0],[2.1896520426123516],['rabbia_3'],0.01566494588769274,None,-0.08255870296764925,soglievo,342.51569307113505,neutral,1,[352.0],[-1.0],[1],[0],[0],[2.205934121196833],['neutral_5'],0.005766191314023672,None,,,08,001,healthy,24,f,18,1,aurora,2022-03-31_15h07.34.961,pilot_AIM1,2022.1.1,60.02787724769824,
,,stimoli/02.subtle/JM1_Sadness.wmv,sad,subtle,maschio,7,10,1646,926,,,,,,,,,,,,,,,,,0,0,0,0,,,,,0,16,16,18,-171.3726468559348,colpa,146.6594695203825,colpa,4,,,,,,,,,,sad,[-487.0],[-22.0],[1],[0],[0],[5.870360119154611],['colpa_4'],0.01574256053982026,None,-9.170424837789025,soglievo,359.103049276945,tristezza,3,[327.0],[-108.0],[1],[0],[0],[3.140513308667778],['tristezza_7'],0.005730270483809363,None,,,08,001,healthy,24,f,18,1,aurora,2022-03-31_15h07.34.961,pilot_AIM1,2022.1.1,60.02787724769824,
,,stimoli/01.full/M02-Anger-Face Forward.wmv,angry,full,maschio,3,6,720,576,,,,,,,,,,,,,,,,,0,0,0,0,,,,,0,17,17,34,124.00749241973229,disprezzo,100.12492197250393,disprezzo,3,,,,,,,,,,angry,[-398.0],[83.0],[1],[0],[0],[4.088184676686751],['disprezzo_3'],0.015393615329003296,None,7.723246932147279,soddisfazione,354.36421941273926,rabbia,3,[329.0],[91.0],[1],[0],[0],[1.5900669923487385],['rabbia_7'],0.005644637789828266,None,,,08,001,healthy,24,f,18,1,aurora,2022-03-31_15h07.34.961,pilot_AIM1,2022.1.1,60.02787724769824,
,,stimoli/02.subtle/JM2_Fear.wmv,fear,subtle,maschio,8,10,1646,926,,,,,,,,,,,,,,,,,0,0,0,0,,,,,0,18,18,3,-78.58901687323461,sorpresa,111.19802156513397,sorpresa,3,,,,,,,,,,fear,[-320.0],[-109.0],[1],[0],[0],[2.9068322702478326],['sorpresa_3'],0.015801252610572192,None,-5.516131195312919,soglievo,348.0057470789814,paura,2,[300.0],[-62.0],[1],[0],[0],[3.5061931360426115],['paura_6'],0.005762342653497399,None,,,08,001,healthy,24,f,18,1,aurora,2022-03-31_15h07.34.961,pilot_AIM1,2022.1.1,60.02787724769824,
,,stimoli/01.full/F01-Anger-Face Forward.wmv,angry,full,femmina,1,6,720,576,,,,,,,,,,,,,,,,,0,0,0,0,,,,,0,19,19,32,-82.12606186827438,sorpresa,94.89467845985885,sorpresa,3,,,,,,,,,,angry,"[319.0, -329.0]","[95.0, -94.0]","[1, 1]","[0, 0]","[0, 0]","[11.348698896204269, 13.216627303423365]",['sorpresa_3'],0.015460966886166716,None,8.350752532331411,soddisfazione,355.65713826661766,rabbia,3,[312.0],[96.0],[1],[0],[0],[1.9050426431572305],['rabbia_7'],0.0056888973842887935,None,,,08,001,healthy,24,f,18,1,aurora,2022-03-31_15h07.34.961,pilot_AIM1,2022.1.1,60.02787724769824,
,,stimoli/01.full/M03-Neutral-Face Forward.wmv,neutral,full,maschio,4,6,720,576,,,,,,,,,,,,,,,,,0,0,0,0,,,,,0,20,20,55,0.0,soddisfazione,1.0,neutral,1,,,,,,,,,,neutral,[-341.0],[0.0],[1],[0],[0],[0.7871110287212559],['neutral_1'],0.015475078640747597,None,-6.434739151036719,soglievo,350.5880773785669,tristezza,2,"[318.0, 323.0]","[-77.0, -75.0]","[1, 1]","[0, 0]","[0, 0]","[2.9384583164421656, 3.4549616930000866]",['tristezza_6'],0.0056561837704975915,None,,,08,001,healthy,24,f,18,1,aurora,2022-03-31_15h07.34.961,pilot_AIM1,2022.1.1,60.02787724769824,
,,stimoli/01.full/F03-Fear-Face Forward.wmv,fear,full,femmina,2,6,720,576,,,,,,,,,,,,,,,,,0,0,0,0,,,,,0,21,21,29,-142.40691212849524,vergogna,142.61135999632006,vergogna,4,,,,,,,,,,fear,[-455.0],[-87.0],[1],[0],[0],[6.349938806299633],['vergogna_4'],0.015466739876728752,None,-6.481152047489013,soglievo,350.8090648771779,tristezza,2,"[326.0, 327.0]","[-81.0, -76.0]","[1, 1]","[0, 0]","[0, 0]","[2.02589667373104, 2.9239491874195664]",['tristezza_6'],0.005398644245360629,None,,,08,001,healthy,24,f,18,1,aurora,2022-03-31_15h07.34.961,pilot_AIM1,2022.1.1,60.02787724769824,
,,stimoli/02.subtle/JF1_Fear.wmv,fear,subtle,femmina,5,10,1646,926,,,,,,,,,,,,,,,,,0,0,0,0,,,,,0,22,22,0,-121.64465903709257,paura,101.01980003939822,paura,3,,,,,,,,,,fear,[-395.0],[-86.0],[0],[0],[0],[3.6639009765333412],['paura_3'],0.01578874446431655,None,-6.0689925429042555,soglievo,350.41974830194715,sorpresa,2,[354.0],[-74.0],[1],[0],[0],[2.412566453536556],['sorpresa_6'],0.00555259066140934,None,,,08,001,healthy,24,f,18,1,aurora,2022-03-31_15h07.34.961,pilot_AIM1,2022.1.1,60.02787724769824,
,,stimoli/02.subtle/JF2_Neutral.wmv,neutral,subtle,femmina,6,9,1646,926,,,,,,,,,,,,,,,,,0,0,0,0,,,,,0,23,23,25,-170.45086607126407,colpa,108.50345616615168,colpa,3,,,,,,,,,,neutral,[-449.0],[-18.0],[1],[0],[0],[3.269703537688656],['colpa_3'],0.015827231068215042,None,-13.001144737600129,soglievo,373.05093486010725,tristezza,4,[299.0],[-148.0],[1],[0],[0],[2.6885513257352613],['tristezza_8'],0.005850861842873201,None,,,08,001,healthy,24,f,18,1,aurora,2022-03-31_15h07.34.961,pilot_AIM1,2022.1.1,60.02787724769824,
,,stimoli/01.full/M03-Surprise-Face Forward.wmv,surprised,full,maschio,4,6,720,576,,,,,,,,,,,,,,,,,0,0,0,0,,,,,0,24,24,51,-77.71167683672466,sorpresa,103.36827366266692,sorpresa,3,,,,,,,,,,surprised,[-320.0],[-101.0],[1],[0],[0],[2.8842637256059334],['sorpresa_3'],0.015468343485053992,None,-7.45094017860878,soglievo,352.09799772222505,paura,3,[285.0],[-82.0],[1],[0],[0],[1.8777200407446344],['paura_7'],0.005781585955674018,None,,,08,001,healthy,24,f,18,1,aurora,2022-03-31_15h07.34.961,pilot_AIM1,2022.1.1,60.02787724769824,
,,stimoli/02.subtle/JM2_Happiness.wmv,happy,subtle,maschio,8,10,1646,926,,,,,,,,,,,,,,,,,0,0,0,0,,,,,0,25,25,15,33.231711067979354,gioia,104.0096149401583,gioia,3,,,,,,,,,,happy,[-255.0],[57.0],[1],[0],[0],[7.070307969805981],['gioia_3'],0.015868283446252462,None,6.31308445593759,soddisfazione,351.0655209501497,orgoglio,2,[354.0],[77.0],[1],[0],[0],[2.0254018001469376],['orgoglio_6'],0.005770039974549945,None,,,08,001,healthy,24,f,18,1,aurora,2022-03-31_15h07.34.961,pilot_AIM1,2022.1.1,60.02787724769824,
,,stimoli/01.full/F01-Sadness-Face Forward.wmv,sad,full,femmina,1,6,720,576,,,,,,,,,,,,,,,,,0,0,0,0,,,,,0,26,26,44,-102.7071135013166,tristezza,104.5609869884557,tristezza,3,,,,,,,,,,sad,[-365.0],[-102.0],[1],[0],[0],[3.8981583518498155],['tristezza_3'],0.015483096683510666,None,0.8400538696966696,soddisfazione,342.6426710145717,neutral,1,[340.0],[10.0],[1],[0],[0],[8.660893569145173],['neutral_5'],0.005907308862788341,None,,,08,001,healthy,24,f,18,1,aurora,2022-03-31_15h07.34.961,pilot_AIM1,2022.1.1,60.02787724769824,
,,stimoli/02.subtle/JM1_Fear.wmv,fear,subtle,maschio,7,10,1646,926,,,,,,,,,,,,,,,,,0,0,0,0,,,,,0,27,27,2,-81.7241071729248,sorpresa,111.15754585272202,sorpresa,3,,,,,,,,,,fear,[-326.0],[-110.0],[1],[0],[0],[2.8069560046799324],['sorpresa_3'],0.015789385907737596,None,-6.331246269087499,soglievo,351.29617134264356,sorpresa,2,[361.0],[-78.0],[1],[0],[0],[3.6572889779497473],['sorpresa_6'],0.005577606954375369,None,,,08,001,healthy,24,f,18,1,aurora,2022-03-31_15h07.34.961,pilot_AIM1,2022.1.1,60.02787724769824,
,,stimoli/01.full/F03-Neutral-Face Forward.wmv,neutral,full,femmina,2,6,720,576,,,,,,,,,,,,,,,,,0,0,0,0,,,,,0,28,28,53,-79.90249561592472,sorpresa,74.14849964766651,sorpresa,2,,,,,,,,,,neutral,[-329.0],[-73.0],[1],[0],[0],[5.684453464564058],['sorpresa_2'],0.015424404612076614,None,-5.065855144282681,soglievo,347.15126386058284,paura,2,[301.0],[-57.0],[1],[0],[0],[1.759607859990865],['paura_6'],0.0057283461535462266,None,,,08,001,healthy,24,f,18,1,aurora,2022-03-31_15h07.34.961,pilot_AIM1,2022.1.1,60.02787724769824,
,,stimoli/01.full/M03-Sadness-Face Forward.wmv,sad,full,maschio,4,6,720,576,,,,,,,,,,,,,,,,,0,0,0,0,,,,,0,29,29,47,-98.05441444638176,tristezza,107.05606008068857,tristezza,3,,,,,,,,,,sad,[-357.0],[-106.0],[1],[0],[0],[2.102387837206834],['tristezza_3'],0.015432101933129161,None,-3.679549238450457,soglievo,344.7375813571825,vergogna,2,[280.0],[-40.0],[1],[0],[0],[6.09354906785461],['vergogna_6'],0.005738609247828208,None,,,08,001,healthy,24,f,18,1,aurora,2022-03-31_15h07.34.961,pilot_AIM1,2022.1.1,60.02787724769824,
,,stimoli/02.subtle/JF1_Neutral.wmv,neutral,subtle,femmina,5,10,1646,926,,,,,,,,,,,,,,,,,0,0,0,0,,,,,0,30,30,24,-59.17233770013197,interesse,72.20110802473879,interesse,2,,,,,,,,,,neutral,[-305.0],[-62.0],[1],[0],[0],[8.602796757375245],['interesse_2'],0.01587181138484084,None,0.0,soddisfazione,342.49671531271656,neutral,1,[340.0],[0.0],[1],[0],[0],[1.510096319141212],['neutral_5'],0.005759456158557441,None,,,08,001,healthy,24,f,18,1,aurora,2022-03-31_15h07.34.961,pilot_AIM1,2022.1.1,60.02787724769824,
,,stimoli/02.subtle/JM2_Disgust.wmv,disgusted,subtle,maschio,8,10,1646,926,,,,,,,,,,,,,,,,,0,0,0,0,,,,,0,31,31,11,148.89119117145486,disgusto,67.7421582177598,disgusto,2,,,,,,,,,,disgusted,[-400.0],[35.0],[1],[0],[0],[6.105353550773998],['disgusto_2'],0.01562485567501426,None,0.1675310416018684,soddisfazione,342.50547440880416,neutral,1,[342.0],[2.0],[1],[0],[0],[10.456204168868908],['neutral_5'],0.005704292025939139,None,,,08,001,healthy,24,f,18,1,aurora,2022-03-31_15h07.34.961,pilot_AIM1,2022.1.1,60.02787724769824,
,,stimoli/01.full/F01-Disgust-Face Forward.wmv,disgusted,full,femmina,1,6,720,576,,,,,,,,,,,,,,,,,0,0,0,0,,,,,0,32,32,36,144.21102654081668,disgusto,106.01886624558857,disgusto,3,,,,,,,,,,disgusted,[-428.0],[62.0],[1],[0],[0],[4.8553663796421915],['disgusto_3'],0.01591414664903823,None,7.169927787489636,soddisfazione,351.41286259896634,disprezzo,3,[286.0],[79.0],[1],[0],[0],[1.1899387678129187],['disprezzo_7'],0.005740212856835569,None,,,08,001,healthy,24,f,18,1,aurora,2022-03-31_15h07.34.961,pilot_AIM1,2022.1.1,60.02787724769824,
,,stimoli/02.subtle/JF1_Surprise.wmv,surprised,subtle,femmina,5,10,1646,926,,,,,,,,,,,,,,,,,0,0,0,0,,,,,0,33,33,20,-57.050784883409555,interesse,64.35060217278468,interesse,2,,,,,,,,,,surprised,[-307.0],[-54.0],[1],[0],[0],[4.272407221626281],['interesse_2'],0.015858661795391527,None,-5.613605029523088,soglievo,349.40663989111596,sorpresa,2,[360.0],[-69.0],[1],[0],[0],[3.556191724867176],['sorpresa_6'],0.005723856050053655,None,,,08,001,healthy,24,f,18,1,aurora,2022-03-31_15h07.34.961,pilot_AIM1,2022.1.1,60.02787724769824,
,,stimoli/01.full/F03-Joy-Face Forward.wmv,happy,full,femmina,2,6,720,576,,,,,,,,,,,,,,,,,0,0,0,0,,,,,0,34,34,41,35.272421448598394,gioia,100.43903623591775,gioia,3,,,,,,,,,,happy,[-260.0],[58.0],[1],[0],[0],[3.5497634998178],['gioia_3'],0.015517093183916586,None,6.000966701266507,soddisfazione,351.351675675526,euforia,3,[400.0],[78.0],[1],[0],[0],[1.5918184535569253],['euforia_7'],0.005801149979333786,None,,,08,001,healthy,24,f,18,1,aurora,2022-03-31_15h07.34.961,pilot_AIM1,2022.1.1,60.02787724769824,
,,stimoli/01.full/F01-Fear-Face Forward.wmv,fear,full,femmina,1,6,720,576,,,,,,,,,,,,,,,,,0,0,0,0,,,,,0,35,35,28,-123.58416047559298,paura,150.04665940966495,paura,4,,,,,,,,,,fear,[-425.0],[-125.0],[1],[0],[0],[1.7854968364010801],['paura_4'],0.01547892730127387,None,0.08388834344361831,soddisfazione,342.4996350363019,neutral,1,[340.0],[1.0],[1],[0],[0],[3.043324690952659],['neutral_5'],0.005823921220780903,None,,,08,001,healthy,24,f,18,1,aurora,2022-03-31_15h07.34.961,pilot_AIM1,2022.1.1,60.02787724769824,
,,stimoli/02.subtle/JF1_Anger.wmv,angry,subtle,femmina,5,10,1646,926,,,,,,,,,,,,,,,,,0,0,0,0,,,,,0,36,36,4,102.9946167919165,rabbia,93.39164844888434,rabbia,3,,,,,,,,,,angry,[-363.0],[91.0],[1],[0],[0],[2.5731566199524423],['rabbia_3'],0.01586411406356092,None,0.4200495088991471,soddisfazione,342.5332100687465,neutral,1,[340.0],[5.0],[1],[0],[0],[5.622458921964608],['neutral_5'],0.005705895634719127,None,,,08,001,healthy,24,f,18,1,aurora,2022-03-31_15h07.34.961,pilot_AIM1,2022.1.1,60.02787724769824,
,,stimoli/01.full/M03-Fear-Face Forward.wmv,fear,full,maschio,4,6,720,576,,,,,,,,,,,,,,,,,0,0,0,0,,,,,0,37,37,31,-127.40535663140857,paura,107.00467279516349,paura,3,,,,,,,,,,fear,[-407.0],[-85.0],[1],[0],[0],[2.4367427760644205],['paura_3'],0.01547219214580764,None,0.08488257421597964,soddisfazione,342.48795599261587,neutral,1,[333.0],[1.0],[1],[0],[0],[3.1926597707224573],['neutral_5'],0.005635657581706255,None,,,08,001,healthy,24,f,18,1,aurora,2022-03-31_15h07.34.961,pilot_AIM1,2022.1.1,60.02787724769824,
,,stimoli/01.full/F03-Surprise-Face Forward.wmv,surprised,full,femmina,2,6,720,576,,,,,,,,,,,,,,,,,0,0,0,0,,,,,0,38,38,49,-76.21840276434638,sorpresa,109.14210919713803,sorpresa,3,,,,,,,,,,surprised,[-316.0],[-106.0],[1],[0],[0],[2.705087095185263],['sorpresa_3'],0.015384955843273929,None,-3.674499520829663,soglievo,345.0217384455652,paura,1,[312.0],[-42.0],[1],[0],[0],[4.840580467791824],['paura_5'],0.005875236692872932,None,,,08,001,healthy,24,f,18,1,aurora,2022-03-31_15h07.34.961,pilot_AIM1,2022.1.1,60.02787724769824,
,,stimoli/02.subtle/JF2_Happiness.wmv,happy,subtle,femmina,6,9,1646,926,,,,,,,,,,,,,,,,,0,0,0,0,,,,,0,39,39,13,10.573523418560919,soddisfazione,76.2954782408499,soddisfazione,2,,,,,,,,,,happy,[-267.0],[14.0],[1],[0],[0],[5.172203178480231],['soddisfazione_2'],0.015849040144075843,None,3.6938109993381794,soddisfazione,346.0953625808933,gioia,3,[417.0],[49.0],[1],[0],[0],[3.5717075993081835],['gioia_7'],0.0057123100689295825,None,,,08,001,healthy,24,f,18,1,aurora,2022-03-31_15h07.34.961,pilot_AIM1,2022.1.1,60.02787724769824,
,,stimoli/01.full/F03-Anger-Face Forward.wmv,angry,full,femmina,2,6,720,576,,,,,,,,,,,,,,,,,0,0,0,0,,,,,0,40,40,33,103.2405199151872,rabbia,104.78549517943789,rabbia,3,,,,,,,,,,angry,[-366.0],[102.0],[1],[0],[0],[2.102925366777299],['rabbia_3'],0.015788423742378654,None,8.051829480017025,soddisfazione,353.2789266288042,disprezzo,3,[273.0],[87.0],[1],[0],[0],[4.429608321830074],['disprezzo_7'],0.0057831895644540054,None,,,08,001,healthy,24,f,18,1,aurora,2022-03-31_15h07.34.961,pilot_AIM1,2022.1.1,60.02787724769824,
,,stimoli/02.subtle/JM1_Disgust.wmv,disgusted,subtle,maschio,7,10,1646,926,,,,,,,,,,,,,,,,,0,0,0,0,,,,,0,41,41,10,147.4499965078066,disgusto,111.51681487560519,disgusto,3,,,,,,,,,,disgusted,[-436.0],[60.0],[1],[0],[0],[3.340343775176734],['disgusto_3'],0.015868283445797715,None,-0.0841347112058182,soglievo,342.49671531271656,neutral,1,[339.0],[-1.0],[1],[0],[0],[5.690568985954997],['neutral_5'],0.005696273983630817,None,,,08,001,healthy,24,f,18,1,aurora,2022-03-31_15h07.34.961,pilot_AIM1,2022.1.1,60.02787724769824,
,,stimoli/02.subtle/JM2_Surprise.wmv,surprised,subtle,maschio,8,10,1646,926,,,,,,,,,,,,,,,,,0,0,0,0,,,,,0,42,42,23,-79.44819049380772,sorpresa,103.75451797391764,sorpresa,3,,,,,,,,,,surprised,[-323.0],[-102.0],[1],[0],[0],[2.752654613517734],['sorpresa_3'],0.015802535497414283,None,0.7913278506102571,soddisfazione,342.70395387272674,soddisfazione,1,"[377.0, 382.0]","[10.0, 10.0]","[1, 1]","[0, 0]","[0, 0]","[3.225735158282532, 3.7789637353557737]",['soddisfazione_5'],0.005648807172065062,None,,,08,001,healthy,24,f,18,1,aurora,2022-03-31_15h07.34.961,pilot_AIM1,2022.1.1,60.02787724769824,
,,stimoli/01.full/M02-Disgust-Face Forward.wmv,disgusted,full,maschio,3,6,720,576,,,,,,,,,,,,,,,,,0,0,0,0,,,,,0,43,43,38,146.30993247402023,disgusto,104.5609869884557,disgusto,3,,,,,,,,,,disgusted,[-429.0],[58.0],[1],[0],[0],[3.2698209218310694],['disgusto_3'],0.01540099192834532,None,7.224315694045337,soddisfazione,351.8835034496502,disprezzo,3,[297.0],[81.0],[1],[0],[0],[1.6269750042336],['disprezzo_7'],0.005804357196893761,None,,,08,001,healthy,24,f,18,1,aurora,2022-03-31_15h07.34.961,pilot_AIM1,2022.1.1,60.02787724769824,
,,stimoli/02.subtle/JF1_Sadness.wmv,sad,subtle,femmina,5,10,1646,926,,,,,,,,,,,,,,,,,0,0,0,0,,,,,0,44,44,16,-107.41797079220284,tristezza,106.90182411914213,tristezza,3,,,,,,,,,,sad,[-374.0],[-102.0],[1],[0],[0],[1.8710329932828245],['tristezza_3'],0.015716261359784767,None,2.2196555531978914,soddisfazione,343.35404468274436,disgusto,1,[303.0],[25.0],[1],[0],[0],[3.4239315477259424],['disgusto_5'],0.005543931175452599,None,,,08,001,healthy,24,f,18,1,aurora,2022-03-31_15h07.34.961,pilot_AIM1,2022.1.1,60.02787724769824,
,,stimoli/02.subtle/JF2_Anger.wmv,angry,subtle,femmina,6,9,1646,926,,,,,,,,,,,,,,,,,0,0,0,0,,,,,0,45,45,5,102.02227668618352,rabbia,110.42191811411355,rabbia,3,,,,,,,,,,angry,[-365.0],[108.0],[1],[0],[0],[2.7403177325745673],['rabbia_3'],0.015784575082079755,None,0.49821161261364194,soddisfazione,342.56094348305385,neutral,1,"[332.0, 348.0]","[-10.0, 6.0]","[1, 1]","[0, 0]","[0, 0]","[6.787549776007836, 7.622643978385895]",['neutral_5'],0.0058117337960084114,None,,,08,001,healthy,24,f,18,1,aurora,2022-03-31_15h07.34.961,pilot_AIM1,2022.1.1,60.02787724769824,
,,stimoli/02.subtle/JM1_Neutral.wmv,neutral,subtle,maschio,7,10,1646,926,,,,,,,,,,,,,,,,,0,0,0,0,,,,,0,46,46,26,105.46121774044191,rabbia,48.76474136094644,rabbia,1,,,,,,,,,,neutral,[-355.0],[47.0],[1],[0],[0],[2.584317093697109],['rabbia_1'],0.015813440035344684,None,-4.145845686112812,soglievo,345.97543265382296,tristezza,1,[334.0],[-49.0],[1],[0],[0],[2.792787161381966],['tristezza_5'],0.005898007933410554,None,,,08,001,healthy,24,f,18,1,aurora,2022-03-31_15h07.34.961,pilot_AIM1,2022.1.1,60.02787724769824,
,,stimoli/01.full/M02-Sadness-Face Forward.wmv,sad,full,maschio,3,6,720,576,,,,,,,,,,,,,,,,,0,0,0,0,,,,,0,47,47,46,-129.28940686250036,paura,99.48869282486326,paura,3,,,,,,,,,,sad,[-405.0],[-77.0],[1],[0],[0],[2.151279294720325],['paura_3'],0.015845512205487466,None,-0.8094626489955458,soglievo,342.54926652964826,colpa,1,[295.0],[-9.0],[1],[0],[0],[10.488549273116405],['colpa_5'],0.005792811215542315,None,,,08,001,healthy,24,f,18,1,aurora,2022-03-31_15h07.34.961,pilot_AIM1,2022.1.1,60.02787724769824,
,,stimoli/01.full/M02-Surprise-Face Forward.wmv,surprised,full,maschio,3,6,720,576,,,,,,,,,,,,,,,,,0,0,0,0,,,,,0,48,48,50,-77.28886743447052,sorpresa,136.34148304899725,sorpresa,4,,,,,,,,,,surprised,[-312.0],[-133.0],[1],[0],[0],[2.5735719545550637],['sorpresa_4'],0.015811194983598398,None,-4.0293727816346,soglievo,346.33365415448725,interesse,2,"[360.0, 320.0, 382.0]","[8.0, -4.0, -51.0]","[1, 1, 1]","[0, 0, 0]","[0, 0, 0]","[1.3722552636845649, 2.559383226511727, 4.774644896933069]",['interesse_6'],0.0057556074982585415,None,,,08,001,healthy,24,f,18,1,aurora,2022-03-31_15h07.34.961,pilot_AIM1,2022.1.1,60.02787724769824,
,,stimoli/02.subtle/JM2_Sadness.wmv,sad,subtle,maschio,8,10,1646,926,,,,,,,,,,,,,,,,,0,0,0,0,,,,,0,49,49,19,-104.21585347367355,tristezza,77.3692445355388,tristezza,2,,,,,,,,,,sad,[-361.0],[-75.0],[1],[0],[0],[7.634369243045512],['tristezza_2'],0.015765652501841032,None,-3.9357475745438855,soglievo,345.1028832102102,vergogna,2,[283.0],[-43.0],[1],[0],[0],[4.558610287212559],['vergogna_6'],0.005705895634719127,None,,,08,001,healthy,24,f,18,1,aurora,2022-03-31_15h07.34.961,pilot_AIM1,2022.1.1,60.02787724769824,
,,stimoli/01.full/M02-Neutral-Face Forward.wmv,neutral,full,maschio,3,6,720,576,,,,,,,,,,,,,,,,,0,0,0,0,,,,,0,50,50,54,-58.44861505168652,interesse,66.88796603276258,interesse,2,,,,,,,,,,neutral,[-307.0],[-57.0],[1],[0],[0],[10.099213333812258],['interesse_2'],0.015459683999324625,None,-3.634288706923993,soglievo,345.1782148398129,tristezza,1,[335.0],[-43.0],[1],[0],[0],[3.156718734765718],['tristezza_5'],0.005777095852636194,None,,,08,001,healthy,24,f,18,1,aurora,2022-03-31_15h07.34.961,pilot_AIM1,2022.1.1,60.02787724769824,
,,stimoli/01.full/F03-Sadness-Face Forward.wmv,sad,full,femmina,2,6,720,576,,,,,,,,,,,,,,,,,0,0,0,0,,,,,0,51,51,45,-103.75307058652305,tristezza,147.220922426128,tristezza,4,,,,,,,,,,sad,[-377.0],[-143.0],[1],[0],[0],[3.1693125137910556],['tristezza_4'],0.015911580875808795,None,-0.7128189538216675,soglievo,342.5332100687465,colpa,1,[301.0],[-8.0],[1],[0],[0],[4.143601858646434],['colpa_5'],0.005617376445343325,None,,,08,001,healthy,24,f,18,1,aurora,2022-03-31_15h07.34.961,pilot_AIM1,2022.1.1,60.02787724769824,
,,stimoli/02.subtle/JF1_Happiness.wmv,happy,subtle,femmina,5,10,1646,926,,,,,,,,,,,,,,,,,0,0,0,0,,,,,0,52,52,12,29.15691788231299,gioia,108.78419002777932,gioia,3,,,,,,,,,,happy,[-247.0],[53.0],[1],[0],[0],[3.923377019905274],['gioia_3'],0.015819533747617243,None,7.474031433047577,soddisfazione,356.3327096969909,euforia,3,[405.0],[98.0],[1],[0],[0],[1.2553352054928837],['euforia_7'],0.005774850799980413,None,,,08,001,healthy,24,f,18,1,aurora,2022-03-31_15h07.34.961,pilot_AIM1,2022.1.1,60.02787724769824,
,,stimoli/01.full/F01-Surprise-Face Forward.wmv,surprised,full,femmina,1,6,720,576,,,,,,,,,,,,,,,,,0,0,0,0,,,,,0,53,53,48,-82.18470645323312,sorpresa,102.95630140987001,sorpresa,3,,,,,,,,,,surprised,[-328.0],[-102.0],[1],[0],[0],[1.5687508659486866],['sorpresa_3'],0.01547347503264973,None,-3.4074814400351396,soglievo,344.67085748580485,paura,1,"[311.0, 310.0, 313.0]","[-45.0, -42.0, -39.0]","[1, 1, 1]","[0, 0, 0]","[0, 0, 0]","[1.575191599144091, 2.1916992092285454, 2.973469900910004]",['paura_5'],0.005899611541963168,None,,,08,001,healthy,24,f,18,1,aurora,2022-03-31_15h07.34.961,pilot_AIM1,2022.1.1,60.02787724769824,
,,stimoli/02.subtle/JF2_Fear.wmv,fear,subtle,femmina,6,10,1646,926,,,,,,,,,,,,,,,,,0,0,0,0,,,,,0,54,54,1,-150.113473059576,vergogna,100.34440691936945,vergogna,3,,,,,,,,,,fear,[-429.0],[-50.0],[1],[0],[0],[1.9172711201654238],['vergogna_3'],0.015867000558955624,None,-6.4146018073397135,soglievo,350.81904167248393,tristezza,2,[334.0],[-76.0],[1],[0],[0],[1.5919121042936695],['tristezza_6'],0.005848296069643766,None,,,08,001,healthy,24,f,18,1,aurora,2022-03-31_15h07.34.961,pilot_AIM1,2022.1.1,60.02787724769824,
,,stimoli/02.subtle/JF2_Sadness.wmv,sad,subtle,femmina,6,8,1646,926,,,,,,,,,,,,,,,,,0,0,0,0,,,,,0,55,55,17,-97.69605172201658,tristezza,112.00892821556681,tristezza,3,,,,,,,,,,sad,[-357.0],[-111.0],[1],[0],[0],[1.4744423291067505],['tristezza_3'],0.015854171691216834,None,-3.875406195486407,soglievo,344.9724626691238,vergogna,2,[278.0],[-42.0],[1],[0],[0],[4.687188258506922],['vergogna_6'],0.005778058017540388,None,,,08,001,healthy,24,f,18,1,aurora,2022-03-31_15h07.34.961,pilot_AIM1,2022.1.1,60.02787724769824,
,,stimoli/02.subtle/JF1_Fear.wmv,fear,subtle,femmina,5,10,1646,926,,,,,,,,,,,,,,,,,1,0,1,0,,,,,0,0,0,0,-124.63367739654952,paura,117.88977903109328,paura,4,,,,,,,,,,fear,[-409.0],[-97.0],[1],[0],[0],[2.0052332159918933],['paura_4'],0.01572588301110045,None,-5.142764557884242,soglievo,348.2685745225946,sorpresa,2,[358.0],[-63.0],[1],[0],[0],[2.3232300652221056],['sorpresa_6'],0.005042322435429014,None,,,08,001,healthy,24,f,18,1,aurora,2022-03-31_15h07.34.961,pilot_AIM1,2022.1.1,60.02787724769824,
,,stimoli/01.full/M03-Surprise-Face Forward.wmv,surprised,full,maschio,4,6,720,576,,,,,,,,,,,,,,,,,1,0,1,0,,,,,0,1,1,51,-81.46923439005187,sorpresa,101.11874208078342,sorpresa,3,,,,,,,,,,surprised,[-327.0],[-100.0],[1],[0],[0],[1.3351602710483803],['sorpresa_3'],0.015376296357089814,None,-0.6652331486194474,soglievo,342.60035026251796,neutral,1,"[352.0, 347.0]","[-10.0, -8.0]","[1, 1]","[0, 0]","[0, 0]","[1.625103272387605, 2.4585470408931087]",['neutral_5'],0.005784793173006619,None,,,08,001,healthy,24,f,18,1,aurora,2022-03-31_15h07.34.961,pilot_AIM1,2022.1.1,60.02787724769824,
,,stimoli/02.subtle/JF2_Surprise.wmv,surprised,subtle,femmina,6,10,1646,926,,,,,,,,,,,,,,,,,1,0,1,0,,,,,0,2,2,21,-76.92087621993318,sorpresa,101.6366075781753,sorpresa,3,,,,,,,,,,surprised,[-319.0],[-99.0],[1],[0],[0],[1.888340419144697],['sorpresa_3'],0.015804780549387942,None,-5.5494359295195155,soglievo,348.59145141555035,tristezza,2,[327.0],[-65.0],[1],[0],[0],[2.6771717990691286],['tristezza_6'],0.005873633083410823,None,,,08,001,healthy,24,f,18,1,aurora,2022-03-31_15h07.34.961,pilot_AIM1,2022.1.1,60.02787724769824,
,,stimoli/01.full/F01-Fear-Face Forward.wmv,fear,full,femmina,1,6,720,576,,,,,,,,,,,,,,,,,1,0,1,0,,,,,0,3,3,28,-120.76271953423893,paura,146.63219291819925,paura,4,,,,,,,,,,fear,[-417.0],[-126.0],[1],[0],[0],[1.587576267620534],['paura_4'],0.015467060598894022,None,-0.08463181365300601,soglievo,342.49087579087416,neutral,1,"[343.0, 335.0]","[-16.0, -1.0]","[1, 1]","[0, 0]","[0, 0]","[3.1739809388677713, 3.737777295982596]",['neutral_5'],0.005662598205162794,None,,,08,001,healthy,24,f,18,1,aurora,2022-03-31_15h07.34.961,pilot_AIM1,2022.1.1,60.02787724769824,
,,stimoli/02.subtle/JF1_Neutral.wmv,neutral,subtle,femmina,5,10,1646,926,,,,,,,,,,,,,,,,,1,0,1,0,,,,,0,4,4,24,36.86989764584402,gioia,45.0,gioia,1,,,,,,,,,,neutral,[-306.0],[27.0],[1],[0],[0],[6.318273952779236],['gioia_1'],0.01573678754903085,None,-4.921662286195205,soglievo,348.11779615526694,interesse,2,[378.0],[-62.0],[1],[0],[0],[2.209262571007912],['interesse_6'],0.005523084264495992,None,,,08,001,healthy,24,f,18,1,aurora,2022-03-31_15h07.34.961,pilot_AIM1,2022.1.1,60.02787724769824,
,,stimoli/02.subtle/JM1_Disgust.wmv,disgusted,subtle,maschio,7,10,1646,926,,,,,,,,,,,,,,,,,1,0,1,0,,,,,0,5,5,10,144.46232220802563,disgusto,94.62557793746889,disgusto,3,,,,,,,,,,disgusted,[-419.0],[55.0],[1],[0],[0],[3.58542262139963],['disgusto_3'],0.015810553539722605,None,0.0,soddisfazione,342.4996350363019,neutral,1,[342.0],[0.0],[1],[0],[0],[0.8904882923748119],['neutral_5'],0.005780944512935093,None,,,08,001,healthy,24,f,18,1,aurora,2022-03-31_15h07.34.961,pilot_AIM1,2022.1.1,60.02787724769824,
,,stimoli/01.full/M02-Anger-Face Forward.wmv,angry,full,maschio,3,6,720,576,,,,,,,,,,,,,,,,,1,0,1,0,,,,,0,6,6,34,97.04576912486749,rabbia,89.67719888578144,rabbia,3,,,,,,,,,,angry,[-353.0],[89.0],[1],[0],[0],[1.5369311038471096],['rabbia_3'],0.01546032544274567,None,7.431407971172507,soddisfazione,351.857925873498,disprezzo,3,[279.0],[81.0],[1],[0],[0],[1.9227336521735197],['disprezzo_7'],0.005812375239202083,None,,,08,001,healthy,24,f,18,1,aurora,2022-03-31_15h07.34.961,pilot_AIM1,2022.1.1,60.02787724769824,
,,stimoli/02.subtle/JF2_Anger.wmv,angry,subtle,femmina,6,9,1646,926,,,,,,,,,,,,,,,,,1,0,1,0,,,,,0,7,7,5,104.53445508054013,rabbia,111.57060544785082,rabbia,3,,,,,,,,,,angry,[-370.0],[108.0],[1],[0],[0],[1.9363348180609137],['rabbia_3'],0.015758596624436905,None,4.904162876740289,soddisfazione,346.8256045911259,disprezzo,2,"[357.0, 299.0]","[-4.0, 55.0]","[1, 1]","[0, 0]","[0, 0]","[0.9432508608169883, 3.2924263494687693]",['disprezzo_6'],0.005762984097145818,None,,,08,001,healthy,24,f,18,1,aurora,2022-03-31_15h07.34.961,pilot_AIM1,2022.1.1,60.02787724769824,
,,stimoli/02.subtle/JM1_Surprise.wmv,surprised,subtle,maschio,7,10,1646,926,,,,,,,,,,,,,,,,,1,0,1,0,,,,,0,8,8,22,-80.1806993612421,sorpresa,105.54619841567009,sorpresa,3,,,,,,,,,,surprised,[-324.0],[-104.0],[1],[0],[0],[1.321287774601842],['sorpresa_3'],0.015859303238812572,None,-5.675355885169155,soglievo,348.3704924358548,paura,2,[302.0],[-64.0],[1],[0],[0],[2.5778478162696956],['paura_6'],0.005504161685166764,None,,,08,001,healthy,24,f,18,1,aurora,2022-03-31_15h07.34.961,pilot_AIM1,2022.1.1,60.02787724769824,
,,stimoli/02.subtle/JM2_Neutral.wmv,neutral,subtle,maschio,8,10,1646,926,,,,,,,,,,,,,,,,,1,0,1,0,,,,,0,9,9,27,11.003540851749504,soddisfazione,73.348483283569,soddisfazione,2,,,,,,,,,,neutral,[-270.0],[14.0],[1],[0],[0],[1.8194147598692325],['soddisfazione_2'],0.015843587874769582,None,0.1655942774028281,soddisfazione,342.51715285515263,neutral,1,[350.0],[2.0],[1],[0],[0],[1.2470214575646423],['neutral_5'],0.005880047518530773,None,,,08,001,healthy,24,f,18,1,aurora,2022-03-31_15h07.34.961,pilot_AIM1,2022.1.1,60.02787724769824,
,,stimoli/02.subtle/JM1_Happiness.wmv,happy,subtle,maschio,7,10,1646,926,,,,,,,,,,,,,,,,,1,0,1,0,,,,,0,10,10,14,31.304123495590975,gioia,86.6083136886985,gioia,3,,,,,,,,,,happy,[-268.0],[45.0],[1],[0],[0],[1.771867126282359],['gioia_3'],0.015835249111205485,None,5.137261773287158,soddisfazione,348.66889737973474,euforia,2,[381.0],[65.0],[1],[0],[0],[2.91000035920797],['euforia_6'],0.005820072559799883,None,,,08,001,healthy,24,f,18,1,aurora,2022-03-31_15h07.34.961,pilot_AIM1,2022.1.1,60.02787724769824,
,,stimoli/02.subtle/JM2_Sadness.wmv,sad,subtle,maschio,8,10,1646,926,,,,,,,,,,,,,,,,,1,0,1,0,,,,,0,11,11,19,-146.62216796356958,vergogna,101.78899744078434,vergogna,3,,,,,,,,,,sad,[-427.0],[-56.0],[1],[0],[0],[4.954454311269274],['vergogna_3'],0.01589843128567736,None,-3.6558308268704,soglievo,345.17242068276545,tristezza,1,"[327.0, 331.0]","[-52.0, -43.0]","[1, 1]","[0, 0]","[0, 0]","[3.5065068018657257, 4.124287356381046]",['tristezza_5'],0.005883896178147552,None,,,08,001,healthy,24,f,18,1,aurora,2022-03-31_15h07.34.961,pilot_AIM1,2022.1.1,60.02787724769824,
,,stimoli/02.subtle/JF1_Disgust.wmv,disgusted,subtle,femmina,5,10,1646,926,,,,,,,,,,,,,,,,,1,0,1,0,,,,,0,12,12,8,144.72757855140162,disgusto,100.43903623591775,disgusto,3,,,,,,,,,,disgusted,[-424.0],[58.0],[1],[0],[0],[2.3193236749061725],['disgusto_3'],0.015656286401735997,None,0.0,soddisfazione,342.4996350363019,neutral,1,[342.0],[0.0],[1],[0],[0],[1.061190172573788],['neutral_5'],0.005588511492078396,None,,,08,001,healthy,24,f,18,1,aurora,2022-03-31_15h07.34.961,pilot_AIM1,2022.1.1,60.02787724769824,
,,stimoli/01.full/M02-Fear-Face Forward.wmv,fear,full,maschio,3,6,720,576,,,,,,,,,,,,,,,,,1,0,1,0,,,,,0,13,13,30,-125.53767779197437,paura,111.83022847155415,paura,3,,,,,,,,,,fear,[-407.0],[-91.0],[1],[0],[0],[1.7831167606595955],['paura_3'],0.015794196733168064,None,0.4996598288636958,soddisfazione,342.55802428201855,neutral,1,"[363.0, 346.0]","[10.0, 6.0]","[1, 1]","[0, 0]","[0, 0]","[1.429768361958395, 1.9927446336841967]",['neutral_5'],0.005651372945521871,None,,,08,001,healthy,24,f,18,1,aurora,2022-03-31_15h07.34.961,pilot_AIM1,2022.1.1,60.02787724769824,
,,stimoli/02.subtle/JM1_Anger.wmv,angry,subtle,maschio,7,10,1646,926,,,,,,,,,,,,,,,,,1,0,1,0,,,,,0,14,14,6,102.24233119887444,rabbia,108.4665847162157,rabbia,3,,,,,,,,,,angry,[-365.0],[106.0],[1],[0],[0],[2.7400226686099813],['rabbia_3'],0.015796762506852247,None,-3.145915828493418,soglievo,344.34430443961173,paura,1,"[310.0, 313.0]","[-42.0, -36.0]","[1, 1]","[0, 0]","[0, 0]","[2.1388481215972206, 2.7730759263727123]",['paura_5'],0.005872670918506628,None,,,08,001,healthy,24,f,18,1,aurora,2022-03-31_15h07.34.961,pilot_AIM1,2022.1.1,60.02787724769824,
,,stimoli/02.subtle/JM2_Anger.wmv,angry,subtle,maschio,8,10,1646,926,,,,,,,,,,,,,,,,,1,0,1,0,,,,,0,15,15,7,125.39479584498706,disprezzo,93.23089616645332,disprezzo,3,,,,,,,,,,angry,[-396.0],[76.0],[1],[0],[0],[2.0387082227912288],['disprezzo_3'],0.015876622210726055,None,7.558203403494239,soddisfazione,352.085216957486,disprezzo,3,[276.0],[82.0],[1],[0],[0],[1.0906035597540722],['disprezzo_7'],0.005604226856121386,None,,,08,001,healthy,24,f,18,1,aurora,2022-03-31_15h07.34.961,pilot_AIM1,2022.1.1,60.02787724769824,
,,stimoli/01.full/F03-Surprise-Face Forward.wmv,surprised,full,femmina,2,6,720,576,,,,,,,,,,,,,,,,,1,0,1,0,,,,,0,16,16,49,-126.02737338510362,paura,95.2102935611481,paura,3,,,,,,,,,,surprised,[-398.0],[-77.0],[1],[0],[0],[3.1031187619628327],['paura_3'],0.015456476782674144,None,-7.074712780164725,soglievo,353.4006225235038,sorpresa,3,[359.0],[-87.0],[1],[0],[0],[1.455599608463217],['sorpresa_7'],0.005559646538586094,None,,,08,001,healthy,24,f,18,1,aurora,2022-03-31_15h07.34.961,pilot_AIM1,2022.1.1,60.02787724769824,
,,stimoli/02.subtle/JM2_Happiness.wmv,happy,subtle,maschio,8,10,1646,926,,,,,,,,,,,,,,,,,1,0,1,0,,,,,0,17,17,15,10.619655276155134,soddisfazione,81.39410298049853,soddisfazione,2,,,,,,,,,,happy,[-262.0],[15.0],[1],[0],[0],[3.3358600857995953],['soddisfazione_2'],0.01571177125651957,None,3.829046294496537,soddisfazione,346.38851020205624,gioia,3,[420.0],[51.0],[1],[0],[0],[2.075968707825268],['gioia_7'],0.005595246647772001,None,,,08,001,healthy,24,f,18,1,aurora,2022-03-31_15h07.34.961,pilot_AIM1,2022.1.1,60.02787724769824,
,,stimoli/01.full/M03-Anger-Face Forward.wmv,angry,full,maschio,4,6,720,576,,,,,,,,,,,,,,,,,1,0,1,0,,,,,0,18,18,35,101.30993247402021,rabbia,107.07940978544848,rabbia,3,,,,,,,,,,angry,[-363.0],[105.0],[1],[0],[0],[1.9709557634973862],['rabbia_3'],0.015842625709865388,None,8.026070186113857,soddisfazione,353.2817572420065,disprezzo,3,[275.0],[87.0],[1],[0],[0],[1.4737922262188476],['disprezzo_7'],0.005816865343149402,None,,,08,001,healthy,24,f,18,1,aurora,2022-03-31_15h07.34.961,pilot_AIM1,2022.1.1,60.02787724769824,
,,stimoli/01.full/F03-Neutral-Face Forward.wmv,neutral,full,femmina,2,6,720,576,,,,,,,,,,,,,,,,,1,0,1,0,,,,,0,19,19,53,-81.06940989958102,sorpresa,70.8590149522275,sorpresa,2,,,,,,,,,,neutral,[-331.0],[-70.0],[1],[0],[0],[3.466352444925633],['sorpresa_2'],0.01548117235324753,None,0.0,soddisfazione,342.5010948887609,neutral,1,[343.0],[0.0],[1],[0],[0],[0.6794511681969198],['neutral_5'],0.005652335110880813,None,,,08,001,healthy,24,f,18,1,aurora,2022-03-31_15h07.34.961,pilot_AIM1,2022.1.1,60.02787724769824,
,,stimoli/02.subtle/JM1_Fear.wmv,fear,subtle,maschio,7,10,1646,926,,,,,,,,,,,,,,,,,1,0,1,0,,,,,0,20,20,2,-122.11483060029674,paura,110.98198051936178,paura,3,,,,,,,,,,fear,[-401.0],[-94.0],[1],[0],[0],[1.4861313522142154],['paura_3'],0.015863472620821994,None,-0.1675310416018684,soglievo,342.50547440880416,neutral,1,[342.0],[-2.0],[1],[0],[0],[2.127935886448995],['neutral_5'],0.005706857799850695,None,,,08,001,healthy,24,f,18,1,aurora,2022-03-31_15h07.34.961,pilot_AIM1,2022.1.1,60.02787724769824,
,,stimoli/01.full/F03-Anger-Face Forward.wmv,angry,full,femmina,2,6,720,576,,,,,,,,,,,,,,,,,1,0,1,0,,,,,0,21,21,33,-125.71995431229033,paura,109.62207806824317,paura,3,,,,,,,,,,angry,[-406.0],[-89.0],[1],[0],[0],[1.9349348678370006],['paura_3'],0.015466739876501379,None,8.718649285311873,soddisfazione,355.6177723342859,disprezzo,3,[284.0],[96.0],[1],[0],[0],[1.178326397191995],['disprezzo_7'],0.005750475950662803,None,,,08,001,healthy,24,f,18,1,aurora,2022-03-31_15h07.34.961,pilot_AIM1,2022.1.1,60.02787724769824,
,,stimoli/01.full/F03-Fear-Face Forward.wmv,fear,full,femmina,2,6,720,576,,,,,,,,,,,,,,,,,1,0,1,0,,,,,0,22,22,29,-124.12494175200588,paura,146.16771189288008,paura,4,,,,,,,,,,fear,[-424.0],[-121.0],[1],[0],[0],[1.3362728546285325],['paura_4'],0.015426008220401854,None,-8.911682942910982,soglievo,358.5163873520986,tristezza,3,[334.0],[-106.0],[1],[0],[0],[1.0059234090922473],['tristezza_7'],0.004906336434487457,None,,,08,001,healthy,24,f,18,1,aurora,2022-03-31_15h07.34.961,pilot_AIM1,2022.1.1,60.02787724769824,
,,stimoli/02.subtle/JF1_Anger.wmv,angry,subtle,femmina,5,10,1646,926,,,,,,,,,,,,,,,,,1,0,1,0,,,,,0,23,23,4,-119.82007256547375,paura,94.51454914456292,paura,3,,,,,,,,,,angry,[-389.0],[-82.0],[1],[0],[0],[1.721065771040685],['paura_3'],0.015664625166664337,None,0.33457009219083717,soddisfazione,342.5244516819201,neutral,1,[343.0],[4.0],[1],[0],[0],[1.293309617032719],['neutral_5'],0.0058582384422152245,None,,,08,001,healthy,24,f,18,1,aurora,2022-03-31_15h07.34.961,pilot_AIM1,2022.1.1,60.02787724769824,
,,stimoli/02.subtle/JF1_Happiness.wmv,happy,subtle,femmina,5,10,1646,926,,,,,,,,,,,,,,,,,1,0,1,0,,,,,0,24,24,12,10.469174257711416,soddisfazione,93.55746896961247,soddisfazione,3,,,,,,,,,,happy,[-250.0],[17.0],[1],[0],[0],[1.6142093183761972],['soddisfazione_3'],0.01566719093989377,None,0.4176003276195294,soddisfazione,342.53904886888444,neutral,1,"[354.0, 329.0, 344.0]","[4.0, 2.0, 5.0]","[1, 1, 1]","[0, 0, 0]","[0, 0, 0]","[0.9100266583877783, 1.5280243414940742, 1.9278619921692552]",['neutral_5'],0.005678313568296289,None,,,08,001,healthy,24,f,18,1,aurora,2022-03-31_15h07.34.961,pilot_AIM1,2022.1.1,60.02787724769824,
,,stimoli/01.full/F01-Neutral-Face Forward.wmv,neutral,full,femmina,1,6,720,576,,,,,,,,,,,,,,,,,1,0,1,0,,,,,0,25,25,52,-101.76828893202065,tristezza,73.54590403278758,tristezza,2,,,,,,,,,,neutral,[-357.0],[-72.0],[1],[0],[0],[3.132329773749916],['tristezza_2'],0.015485021013773803,None,0.0,soddisfazione,342.4996350363019,neutral,1,[342.0],[0.0],[1],[0],[0],[0.7304266753221782],['neutral_5'],0.0056856901674109395,None,,,08,001,healthy,24,f,18,1,aurora,2022-03-31_15h07.34.961,pilot_AIM1,2022.1.1,60.02787724769824,
,,stimoli/01.full/F01-Disgust-Face Forward.wmv,disgusted,full,femmina,1,6,720,576,,,,,,,,,,,,,,,,,1,0,1,0,,,,,0,26,26,36,127.98349825527708,disprezzo,92.61749294814668,disprezzo,3,,,,,,,,,,disgusted,[-399.0],[73.0],[1],[0],[0],[1.6383147614087648],['disprezzo_3'],0.015487266065065342,None,3.4904423053499016,soddisfazione,344.51269933051816,disgusto,2,[281.0],[38.0],[1],[0],[0],[1.9078098299919475],['disgusto_6'],0.005670616248153237,None,,,08,001,healthy,24,f,18,1,aurora,2022-03-31_15h07.34.961,pilot_AIM1,2022.1.1,60.02787724769824,
,,stimoli/01.full/M02-Sadness-Face Forward.wmv,sad,full,maschio,3,6,720,576,,,,,,,,,,,,,,,,,1,0,1,0,,,,,0,27,27,46,-124.42647658143909,paura,107.89810007595129,paura,3,,,,,,,,,,sad,[-403.0],[-89.0],[1],[0],[0],[1.901314253385408],['paura_3'],0.015460966886166716,None,0.0,soddisfazione,342.50693423637426,neutral,1,[347.0],[0.0],[1],[0],[0],[1.8077744864604028],['neutral_5'],0.005750155228724907,None,,,08,001,healthy,24,f,18,1,aurora,2022-03-31_15h07.34.961,pilot_AIM1,2022.1.1,60.02787724769824,
,,stimoli/01.full/M03-Disgust-Face Forward.wmv,disgusted,full,maschio,4,6,720,576,,,,,,,,,,,,,,,,,1,0,1,0,,,,,0,28,28,39,125.59921995897615,disprezzo,108.2266141020775,disprezzo,3,,,,,,,,,,disgusted,[-405.0],[88.0],[1],[0],[0],[1.2700014881484094],['disprezzo_3'],0.01581664725244991,None,4.477319946380838,soddisfazione,345.7441250404698,disgusto,3,[271.0],[48.0],[1],[0],[0],[1.2936300180117541],['disgusto_7'],0.005721290276142099,None,,,08,001,healthy,24,f,18,1,aurora,2022-03-31_15h07.34.961,pilot_AIM1,2022.1.1,60.02787724769824,
,,stimoli/01.full/M02-Surprise-Face Forward.wmv,surprised,full,maschio,3,6,720,576,,,,,,,,,,,,,,,,,1,0,1,0,,,,,0,29,29,50,-74.4454287299256,sorpresa,100.68763578513501,sorpresa,3,,,,,,,,,,surprised,[-315.0],[-97.0],[1],[0],[0],[1.7692073812177114],['sorpresa_3'],0.015375013470929844,None,-0.08401134670358004,soglievo,342.49817517762045,neutral,1,[340.0],[-1.0],[1],[0],[0],[1.5130241875476713],['neutral_5'],0.005630205313082115,None,,,08,001,healthy,24,f,18,1,aurora,2022-03-31_15h07.34.961,pilot_AIM1,2022.1.1,60.02787724769824,
,,stimoli/01.full/F01-Surprise-Face Forward.wmv,surprised,full,femmina,1,6,720,576,,,,,,,,,,,,,,,,,1,0,1,0,,,,,0,30,30,48,-78.92979742206063,sorpresa,93.74433316206373,sorpresa,3,,,,,,,,,,surprised,[-324.0],[-92.0],[1],[0],[0],[1.8852310222555388],['sorpresa_3'],0.015264685205238493,None,-0.08376569984154159,soglievo,342.5010948887609,neutral,1,"[365.0, 352.0, 342.0]","[16.0, 8.0, -1.0]","[1, 1, 1]","[0, 0, 0]","[0, 0, 0]","[0.5242699732648362, 1.0272786635400735, 1.793275941254251]",['neutral_5'],0.005612565619685483,None,,,08,001,healthy,24,f,18,1,aurora,2022-03-31_15h07.34.961,pilot_AIM1,2022.1.1,60.02787724769824,
,,stimoli/01.full/M03-Joy-Face Forward.wmv,happy,full,maschio,4,6,720,576,,,,,,,,,,,,,,,,,1,0,1,0,,,,,0,31,31,43,36.769024898809676,gioia,113.6001760562016,gioia,3,,,,,,,,,,happy,[-251.0],[68.0],[1],[0],[0],[1.5015654426219953],['gioia_3'],0.015519338235662872,None,1.6218410145840452,soddisfazione,343.34093842709757,soddisfazione,3,[435.0],[22.0],[1],[0],[0],[1.8096000343812193],['soddisfazione_7'],0.005812054517264187,None,,,08,001,healthy,24,f,18,1,aurora,2022-03-31_15h07.34.961,pilot_AIM1,2022.1.1,60.02787724769824,
,,stimoli/01.full/M03-Sadness-Face Forward.wmv,sad,full,maschio,4,6,720,576,,,,,,,,,,,,,,,,,1,0,1,0,,,,,0,32,32,47,-100.75796708839002,tristezza,101.78899744078434,tristezza,3,,,,,,,,,,sad,[-361.0],[-100.0],[1],[0],[0],[2.001773911727014],['tristezza_3'],0.015451986678272078,None,-1.9123373012261744,soglievo,342.959181244649,colpa,3,[257.0],[-20.0],[1],[0],[0],[0.973582474226987],['colpa_7'],0.005331934131390881,None,,,08,001,healthy,24,f,18,1,aurora,2022-03-31_15h07.34.961,pilot_AIM1,2022.1.1,60.02787724769824,
,,stimoli/01.full/M02-Joy-Face Forward.wmv,happy,full,maschio,3,6,720,576,,,,,,,,,,,,,,,,,1,0,1,0,,,,,0,33,33,42,35.0737544933483,gioia,114.85643212288984,gioia,3,,,,,,,,,,happy,[-248.0],[66.0],[1],[0],[0],[1.4846717477535094],['gioia_3'],0.0154266496638229,None,0.3039535385777764,soddisfazione,342.62515961324266,soddisfazione,2,[412.0],[4.0],[1],[0],[0],[2.327488928686762],['soddisfazione_6'],0.005810771630876843,None,,,08,001,healthy,24,f,18,1,aurora,2022-03-31_15h07.34.961,pilot_AIM1,2022.1.1,60.02787724769824,
,,stimoli/02.subtle/JM1_Sadness.wmv,sad,subtle,maschio,7,10,1646,926,,,,,,,,,,,,,,,,,1,0,1,0,,,,,0,34,34,18,-98.13010235415598,tristezza,113.13708498984761,tristezza,3,,,,,,,,,,sad,[-358.0],[-112.0],[1],[0],[0],[2.3711051556656457],['tristezza_3'],0.01587149066335769,None,-1.8634177421462708,soglievo,342.88044563666796,colpa,3,[242.0],[-19.0],[1],[0],[0],[1.959343072154752],['colpa_7'],0.0056189800534411916,None,,,08,001,healthy,24,f,18,1,aurora,2022-03-31_15h07.34.961,pilot_AIM1,2022.1.1,60.02787724769824,
,,stimoli/01.full/M03-Fear-Face Forward.wmv,fear,full,maschio,4,6,720,576,,,,,,,,,,,,,,,,,1,0,1,0,,,,,0,35,35,31,-122.60033357369024,paura,102.08329931972223,paura,3,,,,,,,,,,fear,[-397.0],[-86.0],[1],[0],[0],[1.7170291677143723],['paura_3'],0.01540131264982847,None,-0.505537876480969,soglievo,342.54634722910123,neutral,1,"[364.0, 323.0, 338.0]","[7.0, -15.0, -6.0]","[1, 1, 1]","[0, 0, 0]","[0, 0, 0]","[1.1420088339582435, 1.7084161864390808, 2.21158235106941]",['neutral_5'],0.005761380489275325,None,,,08,001,healthy,24,f,18,1,aurora,2022-03-31_15h07.34.961,pilot_AIM1,2022.1.1,60.02787724769824,
,,stimoli/02.subtle/JF1_Sadness.wmv,sad,subtle,femmina,5,10,1646,926,,,,,,,,,,,,,,,,,1,0,1,0,,,,,0,36,36,16,-122.96940390346215,paura,132.30646242719968,paura,4,,,,,,,,,,sad,[-415.0],[-111.0],[1],[0],[0],[1.72152279946431],['paura_4'],0.01589105468701746,None,0.9226926653892175,soddisfazione,342.67477292616684,neutral,1,[341.0],[11.0],[1],[0],[0],[1.590897982275692],['neutral_5'],0.005451563326005271,None,,,08,001,healthy,24,f,18,1,aurora,2022-03-31_15h07.34.961,pilot_AIM1,2022.1.1,60.02787724769824,
,,stimoli/02.subtle/JF2_Sadness.wmv,sad,subtle,femmina,6,8,1646,926,,,,,,,,,,,,,,,,,1,0,1,0,,,,,0,37,37,17,-167.52489028779104,colpa,115.73245007343446,colpa,3,,,,,,,,,,sad,[-455.0],[-25.0],[1],[0],[0],[2.7858849096592166],['colpa_3'],0.01592152324928975,None,-8.298902562999091,soglievo,355.9438157912004,tristezza,3,[323.0],[-97.0],[1],[0],[0],[1.6299480943998788],['tristezza_7'],0.005728987597194646,None,,,08,001,healthy,24,f,18,1,aurora,2022-03-31_15h07.34.961,pilot_AIM1,2022.1.1,60.02787724769824,
,,stimoli/02.subtle/JF2_Happiness.wmv,happy,subtle,femmina,6,9,1646,926,,,,,,,,,,,,,,,,,1,0,1,0,,,,,0,38,38,13,30.87681307906041,gioia,113.01769772916099,gioia,3,,,,,,,,,,happy,[-245.0],[58.0],[1],[0],[0],[2.386073237441906],['gioia_3'],0.01572331723764364,None,7.3231728990536045,soddisfazione,355.78785814021256,euforia,3,[405.0],[96.0],[1],[0],[0],[0.9621702339472904],['euforia_7'],0.0056423927380819805,None,,,08,001,healthy,24,f,18,1,aurora,2022-03-31_15h07.34.961,pilot_AIM1,2022.1.1,60.02787724769824,
,,stimoli/02.subtle/JM2_Surprise.wmv,surprised,subtle,maschio,8,10,1646,926,,,,,,,,,,,,,,,,,1,0,1,0,,,,,0,39,39,23,-85.47117576306746,sorpresa,101.31633629380802,sorpresa,3,,,,,,,,,,surprised,[-334.0],[-101.0],[1],[0],[0],[2.435871695925016],['sorpresa_3'],0.015878867262927088,None,3.774716585620632,soddisfazione,346.40438796297025,gioia,3,[431.0],[51.0],[1],[0],[0],[1.3598914421186237],['gioia_7'],0.005778058018222509,None,,,08,001,healthy,24,f,18,1,aurora,2022-03-31_15h07.34.961,pilot_AIM1,2022.1.1,60.02787724769824,
,,stimoli/01.full/M03-Neutral-Face Forward.wmv,neutral,full,maschio,4,6,720,576,,,,,,,,,,,,,,,,,1,0,1,0,,,,,0,40,40,55,-12.528807709151511,soglievo,9.219544457292887,neutral,1,,,,,,,,,,neutral,[-333.0],[-2.0],[1],[0],[0],[1.1694642151555854],['neutral_1'],0.015487586787457985,None,0.0,soddisfazione,342.4996350363019,neutral,1,[342.0],[0.0],[1],[0],[0],[0.626205592873248],['neutral_5'],0.005716158729228482,None,,,08,001,healthy,24,f,18,1,aurora,2022-03-31_15h07.34.961,pilot_AIM1,2022.1.1,60.02787724769824,
,,stimoli/01.full/F03-Joy-Face Forward.wmv,happy,full,femmina,2,6,720,576,,,,,,,,,,,,,,,,,1,0,1,0,,,,,0,41,41,41,32.432557246459346,gioia,113.74093370462545,gioia,3,,,,,,,,,,happy,[-246.0],[61.0],[1],[0],[0],[1.248964068906389],['gioia_3'],0.015472512868200283,None,7.077936836479349,soddisfazione,354.9929576766277,euforia,3,"[402.0, 407.0]","[101.0, 93.0]","[1, 1]","[0, 0]","[0, 0]","[1.4098733534146959, 2.3294777239534596]",['euforia_7'],0.005736364196309296,None,,,08,001,healthy,24,f,18,1,aurora,2022-03-31_15h07.34.961,pilot_AIM1,2022.1.1,60.02787724769824,
,,stimoli/02.subtle/JM1_Neutral.wmv,neutral,subtle,maschio,7,10,1646,926,,,,,,,,,,,,,,,,,1,0,1,0,,,,,0,42,42,26,-102.0947570770121,tristezza,85.90692637965812,tristezza,3,,,,,,,,,,neutral,[-360.0],[-84.0],[1],[0],[0],[1.4401379359892417],['tristezza_3'],0.015776236318288284,None,0.8339408071259133,soddisfazione,342.6499671676622,neutral,1,[345.0],[10.0],[1],[0],[0],[1.4908203034797225],['neutral_5'],0.0058159031782452075,None,,,08,001,healthy,24,f,18,1,aurora,2022-03-31_15h07.34.961,pilot_AIM1,2022.1.1,60.02787724769824,
,,stimoli/01.full/M02-Neutral-Face Forward.wmv,neutral,full,maschio,3,6,720,576,,,,,,,,,,,,,,,,,1,0,1,0,,,,,0,43,43,54,37.116860683270275,gioia,46.400431032480725,gioia,1,,,,,,,,,,neutral,[-305.0],[28.0],[1],[0],[0],[2.6156031748882924],['gioia_1'],0.015444610079157428,None,-0.0835214853196694,soglievo,342.504014575012,neutral,1,[344.0],[-1.0],[1],[0],[0],[0.9629730003639452],['neutral_5'],0.005853427617239504,None,,,08,001,healthy,24,f,18,1,aurora,2022-03-31_15h07.34.961,pilot_AIM1,2022.1.1,60.02787724769824,
,,stimoli/02.subtle/JF2_Neutral.wmv,neutral,subtle,femmina,6,9,1646,926,,,,,,,,,,,,,,,,,1,0,1,0,,,,,0,44,44,25,-104.65675111576043,tristezza,67.1863081289633,tristezza,2,,,,,,,,,,neutral,[-359.0],[-65.0],[1],[0],[0],[2.3395596106179255],['tristezza_2'],0.015723317236734147,None,0.16464259140746543,soddisfazione,342.52299192900904,neutral,1,[354.0],[2.0],[1],[0],[0],[0.7408591108051041],['neutral_5'],0.005666767587172217,None,,,08,001,healthy,24,f,18,1,aurora,2022-03-31_15h07.34.961,pilot_AIM1,2022.1.1,60.02787724769824,
,,stimoli/01.full/F01-Joy-Face Forward.wmv,happy,full,femmina,1,6,720,576,,,,,,,,,,,,,,,,,1,0,1,0,,,,,0,45,45,40,53.87055585675915,euforia,123.81033882515628,euforia,4,,,,,,,,,,happy,[-269.0],[100.0],[1],[0],[0],[1.1209133640886648],['euforia_4'],0.015490794004563213,None,4.347020291775486,soddisfazione,347.48956818874433,gioia,3,[421.0],[58.0],[1],[0],[0],[1.9715058012143345],['gioia_7'],0.005803395031762193,None,,,08,001,healthy,24,f,18,1,aurora,2022-03-31_15h07.34.961,pilot_AIM1,2022.1.1,60.02787724769824,
,,stimoli/02.subtle/JF2_Fear.wmv,fear,subtle,femmina,6,10,1646,926,,,,,,,,,,,,,,,,,1,0,1,0,,,,,0,46,46,1,-128.8298249049704,paura,105.26157893552613,paura,3,,,,,,,,,,fear,[-408.0],[-82.0],[1],[0],[0],[1.9979156296667497],['paura_3'],0.015811515705081547,None,-0.8327288546704282,soglievo,342.6514263796373,neutral,1,[346.0],[-10.0],[1],[0],[0],[1.078252567056552],['neutral_5'],0.005834825758938678,None,,,08,001,healthy,24,f,18,1,aurora,2022-03-31_15h07.34.961,pilot_AIM1,2022.1.1,60.02787724769824,
,,stimoli/01.full/F03-Sadness-Face Forward.wmv,sad,full,femmina,2,6,720,576,,,,,,,,,,,,,,,,,1,0,1,0,,,,,0,47,47,45,-99.8411317596344,tristezza,99.46356116689167,tristezza,3,,,,,,,,,,sad,[-359.0],[-98.0],[1],[0],[0],[2.2673532890653405],['tristezza_3'],0.015465456990114035,None,-7.479041973926493,soglievo,351.8522417151836,paura,3,[275.0],[-81.0],[1],[0],[0],[1.8081670498218045],['paura_7'],0.005699160479707643,None,,,08,001,healthy,24,f,18,1,aurora,2022-03-31_15h07.34.961,pilot_AIM1,2022.1.1,60.02787724769824,
,,stimoli/02.subtle/JM2_Fear.wmv,fear,subtle,maschio,8,10,1646,926,,,,,,,,,,,,,,,,,1,0,1,0,,,,,0,48,48,3,-121.15930450834438,paura,100.4987562112089,paura,3,,,,,,,,,,fear,[-394.0],[-86.0],[1],[0],[0],[1.4697267579394975],['paura_3'],0.015836531998047576,None,-5.297584777909251,soglievo,348.6373473969764,sorpresa,2,[359.0],[-65.0],[1],[0],[0],[2.57617012105311],['sorpresa_6'],0.005727383988414658,None,,,08,001,healthy,24,f,18,1,aurora,2022-03-31_15h07.34.961,pilot_AIM1,2022.1.1,60.02787724769824,
,,stimoli/01.full/F03-Disgust-Face Forward.wmv,disgusted,full,femmina,2,6,720,576,,,,,,,,,,,,,,,,,1,0,1,0,,,,,0,49,49,37,146.8643904512811,disgusto,85.98255637046388,disgusto,3,,,,,,,,,,disgusted,[-414.0],[47.0],[1],[0],[0],[1.3863731122319223],['disgusto_3'],0.015548844633030967,None,5.226464565292764,soddisfazione,347.4881292936494,disprezzo,2,[303.0],[59.0],[1],[0],[0],[2.4226800916489992],['disprezzo_6'],0.005571833964040707,None,,,08,001,healthy,24,f,18,1,aurora,2022-03-31_15h07.34.961,pilot_AIM1,2022.1.1,60.02787724769824,
,,stimoli/02.subtle/JF2_Disgust.wmv,disgusted,subtle,femmina,6,10,1646,926,,,,,,,,,,,,,,,,,1,0,1,0,,,,,0,50,50,9,-96.3401917459099,tristezza,108.664621657649,tristezza,3,,,,,,,,,,disgusted,[-354.0],[-108.0],[1],[0],[0],[1.4873205882809089],['tristezza_3'],0.015723317237188894,None,5.616030127944141,soddisfazione,347.4233728464451,disgusto,3,[258.0],[59.0],[1],[0],[0],[1.5771188158441873],['disgusto_7'],0.005845730296186957,None,,,08,001,healthy,24,f,18,1,aurora,2022-03-31_15h07.34.961,pilot_AIM1,2022.1.1,60.02787724769824,
,,stimoli/01.full/F01-Anger-Face Forward.wmv,angry,full,femmina,1,6,720,576,,,,,,,,,,,,,,,,,1,0,1,0,,,,,0,51,51,32,103.47315811273114,rabbia,98.71676655968832,rabbia,3,,,,,,,,,,angry,[-365.0],[96.0],[1],[0],[0],[1.7036294150548201],['rabbia_3'],0.015467060598894022,None,-6.1245483640706855,soglievo,349.967141314724,tristezza,2,[329.0],[-72.0],[1],[0],[0],[1.6884166226204798],['tristezza_6'],0.005806281527384272,None,,,08,001,healthy,24,f,18,1,aurora,2022-03-31_15h07.34.961,pilot_AIM1,2022.1.1,60.02787724769824,
,,stimoli/02.subtle/JM2_Disgust.wmv,disgusted,subtle,maschio,8,10,1646,926,,,,,,,,,,,,,,,,,1,0,1,0,,,,,0,52,52,11,-103.47315811273114,tristezza,98.71676655968832,tristezza,3,,,,,,,,,,disgusted,[-365.0],[-96.0],[1],[0],[0],[1.6554278299199723],['tristezza_3'],0.01566879454821901,None,-2.0213649403560154,soglievo,343.0131192826303,colpa,3,[253.0],[-21.0],[1],[0],[0],[1.3602782324896907],['colpa_7'],0.005792811215997062,None,,,08,001,healthy,24,f,18,1,aurora,2022-03-31_15h07.34.961,pilot_AIM1,2022.1.1,60.02787724769824,
,,stimoli/02.subtle/JF1_Surprise.wmv,surprised,subtle,femmina,5,10,1646,926,,,,,,,,,,,,,,,,,1,0,1,0,,,,,0,53,53,20,-77.29288649868342,sorpresa,104.5609869884557,sorpresa,3,,,,,,,,,,surprised,[-319.0],[-102.0],[1],[0],[0],[1.864736264131352],['sorpresa_3'],0.01578104714371875,None,2.3059667239950272,soddisfazione,343.89969467855013,gioia,2,[403.0],[30.0],[1],[0],[0],[2.0277578217610426],['gioia_6'],0.005689859549875109,None,,,08,001,healthy,24,f,18,1,aurora,2022-03-31_15h07.34.961,pilot_AIM1,2022.1.1,60.02787724769824,
,,stimoli/01.full/M02-Disgust-Face Forward.wmv,disgusted,full,maschio,3,6,720,576,,,,,,,,,,,,,,,,,1,0,1,0,,,,,0,54,54,38,150.9983005761119,disgusto,105.19030373565806,disgusto,3,,,,,,,,,,disgusted,[-434.0],[51.0],[1],[0],[0],[1.3326798094144578],['disgusto_3'],0.015847436535750603,None,-0.41278665853297347,soglievo,342.55072617059216,neutral,1,"[355.0, 352.0]","[-4.0, -5.0]","[1, 1]","[0, 0]","[0, 0]","[0.6143847531470783, 1.226576411303995]",['neutral_5'],0.005698519035377103,None,,,08,001,healthy,24,f,18,1,aurora,2022-03-31_15h07.34.961,pilot_AIM1,2022.1.1,60.02787724769824,
,,stimoli/01.full/F01-Sadness-Face Forward.wmv,sad,full,femmina,1,6,720,576,,,,,,,,,,,,,,,,,1,0,1,0,,,,,0,55,55,44,-98.67317404787977,tristezza,119.36498649101419,tristezza,4,,,,,,,,,,sad,[-360.0],[-118.0],[1],[0],[0],[1.354659829735283],['tristezza_4'],0.015467060597984528,None,0.0,soddisfazione,342.4996350363019,neutral,1,[342.0],[0.0],[1],[0],[0],[1.0550971017023585],['neutral_5'],0.005692425322649797,None,,,08,001,healthy,24,f,18,1,aurora,2022-03-31_15h07.34.961,pilot_AIM1,2022.1.1,60.02787724769824,
