emotion_practice,emotion_comp,file,file_emotion,file_emotion_level,file_gender,file_id,file_duration,size_w,size_h,practice.thisRepN,practice.thisTrialN,practice.thisN,practice.thisIndex,istr_loop_practice.thisRepN,istr_loop_practice.thisTrialN,istr_loop_practice.thisN,istr_loop_practice.thisIndex,loop_emotion_identication.thisRepN,loop_emotion_identication.thisTrialN,loop_emotion_identication.thisN,loop_emotion_identication.thisIndex,loop_practice.thisRepN,loop_practice.thisTrialN,loop_practice.thisN,loop_practice.thisIndex,random_by_pt_num.thisRepN,random_by_pt_num.thisTrialN,random_by_pt_num.thisN,random_by_pt_num.thisIndex,loop_itr_exp.thisRepN,loop_itr_exp.thisTrialN,loop_itr_exp.thisN,loop_itr_exp.thisIndex,loop_exp.thisRepN,loop_exp.thisTrialN,loop_exp.thisN,loop_exp.thisIndex,wheelresp_angle,wheelresp_cake,wheelresp_norm,wheelresp_emotion,wheelresp_level,Wheelresp.x,Wheelresp.y,Wheelresp.leftButton,Wheelresp.midButton,Wheelresp.rightButton,Wheelresp.time,Wheelresp.clicked_name,Wheelresp.started,Wheelresp.stopped,file_emotion,wheelresp.x,wheelresp.y,wheelresp.leftButton,wheelresp.midButton,wheelresp.rightButton,wheelresp.time,wheelresp.clicked_name,wheelresp.started,wheelresp.stopped,compound_angle,compound_cake,compound_norm,compound_emotion,compound_level,compound.x,compound.y,compound.leftButton,compound.midButton,compound.rightButton,compound.time,compound.clicked_name,compound.started,compound.stopped,kb_end_training.keys,kb_end_training.rt,participant,session,group,age,gender,education,practice,experimenter,date,expName,psychopyVersion,frameRate,
,,,,,,,,,,0,0,0,0,0,0,0,0,,,,,,,,,,,,,,,,,,,,,,,,,,,,,,,,,,,,,,,,,,,,,,,,,,,,,,,,,,,,,04,001,healthy,23,f,17,1,aurora,2022-03-28_10h02.25.547,pilot_AIM1,2022.1.1,84.99941520945407,
SOLLIEVO,GIOIA,,,,,,,,,0,0,0,0,,,,,0,0,0,15,,,,,,,,,,,,,,,,,-12.76766314468288,soglievo,208.1465829649865,Sollievo,4,[203.0],[-46.0],[1],[0],[0],[6.772079875098768],['Sollievo_4'],0.011192088137363498,None,,,,,,,,,,,,,,,,,,,,,,,,,,,04,001,healthy,23,f,17,1,aurora,2022-03-28_10h02.25.547,pilot_AIM1,2022.1.1,84.99941520945407,
INTERESSE,SORPRESA,,,,,,,,,0,0,0,0,,,,,0,1,1,13,,,,,,,,,,,,,,,,,-53.85041753002388,interesse,206.81634364817495,Interesse,4,[122.0],[-167.0],[1],[0],[0],[1.605304142777527],['Interesse_4'],0.01115432848786213,None,,,,,,,,,,,,,,,,,,,,,,,,,,,04,001,healthy,23,f,17,1,aurora,2022-03-28_10h02.25.547,pilot_AIM1,2022.1.1,84.99941520945407,
EUFORIA,GIOIA,,,,,,,,,0,0,0,0,,,,,0,2,2,1,,,,,,,,,,,,,,,,,61.38954033403479,euforia,200.47942537826668,Euforia,4,[96.0],[176.0],[1],[0],[0],[2.6292223208168934],['Euforia_4'],0.01125256757615034,None,,,,,,,,,,,,,,,,,,,,,,,,,,,04,001,healthy,23,f,17,1,aurora,2022-03-28_10h02.25.547,pilot_AIM1,2022.1.1,84.99941520945407,
DISPREZZO,INVIDIA,,,,,,,,,0,0,0,0,,,,,0,3,3,5,,,,,,,,,,,,,,,,,124.52257640399515,disprezzo,209.97618912629116,Disprezzo,4,[-119.0],[173.0],[1],[0],[0],[1.6409511719730858],['Disprezzo_4'],0.011216087914704076,None,,,,,,,,,,,,,,,,,,,,,,,,,,,04,001,healthy,23,f,17,1,aurora,2022-03-28_10h02.25.547,pilot_AIM1,2022.1.1,84.99941520945407,
TRISTEZZA,NEUTRO,,,,,,,,,0,0,0,0,,,,,0,4,4,11,,,,,,,,,,,,,,,,,-106.26020470831196,tristezza,200.0,Tristezza,4,[-56.0],[-192.0],[1],[0],[0],[1.8525975278949431],['Tristezza_4'],0.011214167932564578,None,,,,,,,,,,,,,,,,,,,,,,,,,,,04,001,healthy,23,f,17,1,aurora,2022-03-28_10h02.25.547,pilot_AIM1,2022.1.1,84.99941520945407,
INVIDIA,NEUTRO,,,,,,,,,0,0,0,0,,,,,0,5,5,7,,,,,,,,,,,,,,,,,169.75213588888974,invidia,179.86939706353607,Invidia,4,[-177.0],[32.0],[1],[0],[0],[1.5819651593633353],['Invidia_4'],0.011130968704662791,None,,,,,,,,,,,,,,,,,,,,,,,,,,,04,001,healthy,23,f,17,1,aurora,2022-03-28_10h02.25.547,pilot_AIM1,2022.1.1,84.99941520945407,
DISGUSTO,NEUTRO,,,,,,,,,0,0,0,0,,,,,0,6,6,6,,,,,,,,,,,,,,,,,145.97438269675365,disgusto,189.4333655932872,Disgusto,4,[-157.0],[106.0],[1],[0],[0],[1.358120516641577],['Disgusto_4'],0.011193048128518512,None,,,,,,,,,,,,,,,,,,,,,,,,,,,04,001,healthy,23,f,17,1,aurora,2022-03-28_10h02.25.547,pilot_AIM1,2022.1.1,84.99941520945407,
RABBIA,DISPREZZO,,,,,,,,,0,0,0,0,,,,,0,7,7,4,,,,,,,,,,,,,,,,,99.09027692082232,rabbia,202.54382241875462,Rabbia,4,[-32.0],[200.0],[1],[0],[0],[2.0645245212124337],['Rabbia_4'],0.011169048351291622,None,,,,,,,,,,,,,,,,,,,,,,,,,,,04,001,healthy,23,f,17,1,aurora,2022-03-28_10h02.25.547,pilot_AIM1,2022.1.1,84.99941520945407,
ORGOGLIO,NEUTRO,,,,,,,,,0,0,0,0,,,,,0,8,8,3,,,,,,,,,,,,,,,,,80.28943073398653,orgoglio,189.71821209362056,Orgoglio,4,[32.0],[187.0],[1],[0],[0],[3.758609920099957],['Orgoglio_4'],0.011233047757343684,None,,,,,,,,,,,,,,,,,,,,,,,,,,,04,001,healthy,23,f,17,1,aurora,2022-03-28_10h02.25.547,pilot_AIM1,2022.1.1,84.99941520945407,
VERGOGNA,TRISTEZZA,,,,,,,,,0,0,0,0,,,,,0,9,9,9,,,,,,,,,,,,,,,,,-147.389499037301,vergogna,220.80987296767324,Vergogna,4,[-186.0],[-119.0],[1],[0],[0],[1.499377445777327],['Vergogna_4'],0.011213207941466408,None,,,,,,,,,,,,,,,,,,,,,,,,,,,04,001,healthy,23,f,17,1,aurora,2022-03-28_10h02.25.547,pilot_AIM1,2022.1.1,84.99941520945407,
SPERANZA,NEUTRO,,,,,,,,,0,0,0,0,,,,,0,10,10,14,,,,,,,,,,,,,,,,,-35.15098548888297,speranza,206.69300907384363,Speranza,4,[169.0],[-119.0],[1],[0],[0],[1.1464690407673288],['Speranza_4'],0.01124040768905843,None,,,,,,,,,,,,,,,,,,,,,,,,,,,04,001,healthy,23,f,17,1,aurora,2022-03-28_10h02.25.547,pilot_AIM1,2022.1.1,84.99941520945407,
PAURA,NEUTRO,,,,,,,,,0,0,0,0,,,,,0,11,11,10,,,,,,,,,,,,,,,,,-124.00749241973229,paura,200.24984394500785,Paura,4,[-112.0],[-166.0],[1],[0],[0],[1.2878850084271107],['Paura_4'],0.011234967739483182,None,,,,,,,,,,,,,,,,,,,,,,,,,,,04,001,healthy,23,f,17,1,aurora,2022-03-28_10h02.25.547,pilot_AIM1,2022.1.1,84.99941520945407,
GIOIA,SODDISFAZIONE,,,,,,,,,0,0,0,0,,,,,0,12,12,2,,,,,,,,,,,,,,,,,35.78327975160861,gioia,189.8341381311591,Gioia,4,[154.0],[111.0],[1],[0],[0],[1.2879512478124298],['Gioia_4'],0.011211927953297618,None,,,,,,,,,,,,,,,,,,,,,,,,,,,04,001,healthy,23,f,17,1,aurora,2022-03-28_10h02.25.547,pilot_AIM1,2022.1.1,84.99941520945407,
SORPRESA,GIOIA,,,,,,,,,0,0,0,0,,,,,0,13,13,12,,,,,,,,,,,,,,,,,-79.01134890350603,sorpresa,209.84756372185979,Sorpresa,4,[40.0],[-206.0],[1],[0],[0],[1.9458296227010692],['Sorpresa_4'],0.010663453043150639,None,,,,,,,,,,,,,,,,,,,,,,,,,,,04,001,healthy,23,f,17,1,aurora,2022-03-28_10h02.25.547,pilot_AIM1,2022.1.1,84.99941520945407,
SODDISFAZIONE,EUFORIA,,,,,,,,,0,0,0,0,,,,,0,14,14,0,,,,,,,,,,,,,,,,,11.678784328060425,soddisfazione,182.7840255602223,Soddisfazione,4,[179.0],[37.0],[1],[0],[0],[1.593392573316919],['Soddisfazione_4'],0.011161048425492481,None,,,,,,,,,,,,,,,,,,,,,,,,,,,04,001,healthy,23,f,17,1,aurora,2022-03-28_10h02.25.547,pilot_AIM1,2022.1.1,84.99941520945407,
COLPA,VERGOGNA,,,,,,,,,0,0,0,0,,,,,0,15,15,8,,,,,,,,,,,,,,,,,-170.10939505824197,colpa,197.9419106707824,Colpa,4,[-195.0],[-34.0],[1],[0],[0],[1.358400194046169],['Colpa_4'],0.01119720808992497,None,,,,,,,,,,,,,,,,,,,,,,,,,,,04,001,healthy,23,f,17,1,aurora,2022-03-28_10h02.25.547,pilot_AIM1,2022.1.1,84.99941520945407,
,,stimoli/02.subtle/JM1_Fear.wmv,fear,subtle,maschio,7,10,1646,926,0,0,0,0,,,,,,,,,0,0,0,2,,,,,,,,,,,,,0.0,soddisfazione,0.0,neutral,1,,,,,,,,,,fear,[-256.0],[0.0],[1],[0],[0],[2.075902335626381],['neutral_1'],0.010768092072112267,None,-13.986850566788787,soglievo,290.3825063601456,sorpresa,4,[290.0],[-136.0],[1],[0],[0],[5.684827884797244],['sorpresa_8'],0.008310066882529554,None,,,04,001,healthy,23,f,17,1,aurora,2022-03-28_10h02.25.547,pilot_AIM1,2022.1.1,84.99941520945407,
,,stimoli/02.subtle/JF2_Surprise.wmv,surprised,subtle,femmina,6,10,1646,926,0,0,0,0,,,,,,,,,0,1,1,21,,,,,,,,,,,,,146.5346206536447,disgusto,141.4496376806954,disgusto,4,,,,,,,,,,surprised,[-374.0],[78.0],[1],[0],[0],[2.8287219094606826],['disgusto_4'],0.010736092369029393,None,0.1119056770662069,soddisfazione,256.5014619841376,neutral,1,[256.0],[1.0],[1],[0],[0],[2.0032521298202255],['neutral_5'],0.008775982558859141,None,,,04,001,healthy,23,f,17,1,aurora,2022-03-28_10h02.25.547,pilot_AIM1,2022.1.1,84.99941520945407,
,,stimoli/02.subtle/JF1_Happiness.wmv,happy,subtle,femmina,5,10,1646,926,0,0,0,0,,,,,,,,,0,2,2,12,,,,,,,,,,,,,-153.434948822922,vergogna,4.47213595499958,neutral,1,,,,,,,,,,happy,[-260.0],[-2.0],[1],[0],[0],[3.3933521896916545],['neutral_1'],0.010683932852998623,None,6.897427557751748,soddisfazione,267.44158240632663,gioia,4,[364.0],[75.0],[1],[0],[0],[3.1209761573412607],['gioia_8'],0.00891518126701385,None,,,04,001,healthy,23,f,17,1,aurora,2022-03-28_10h02.25.547,pilot_AIM1,2022.1.1,84.99941520945407,
,,stimoli/02.subtle/JM2_Happiness.wmv,happy,subtle,maschio,8,10,1646,926,0,0,0,0,,,,,,,,,0,3,3,15,,,,,,,,,,,,,-165.96375653207352,colpa,4.123105625617661,neutral,1,,,,,,,,,,happy,[-260.0],[-1.0],[1],[0],[0],[1.981484971819441],['neutral_1'],0.010645533209356017,None,-3.0268179780306577,soglievo,258.9961389673599,sollievo,4,[387.0],[-34.0],[1],[0],[0],[4.262060928074561],['sollievo_8'],0.008937261062158086,None,,,04,001,healthy,23,f,17,1,aurora,2022-03-28_10h02.25.547,pilot_AIM1,2022.1.1,84.99941520945407,
,,stimoli/02.subtle/JF1_Fear.wmv,fear,subtle,femmina,5,10,1646,926,,,,,,,,,,,,,,,,,0,0,0,0,,,,,0,0,0,0,104.62087398863166,rabbia,71.30918594402827,rabbia,2,,,,,,,,,,fear,[-274.0],[69.0],[1],[0],[0],[6.358041797372152],['rabbia_2'],0.010675932927256326,None,0.1116875378979654,soddisfazione,256.50341128335896,neutral,1,[257.0],[1.0],[1],[0],[0],[3.061062793337328],['neutral_5'],0.00794719024997903,None,n,58.500306914717925,04,001,healthy,23,f,17,1,aurora,2022-03-28_10h02.25.547,pilot_AIM1,2022.1.1,84.99941520945407,
,,stimoli/02.subtle/JF1_Sadness.wmv,sad,subtle,femmina,5,10,1646,926,,,,,,,,,,,,,,,,,0,0,0,0,,,,,0,1,1,16,101.56013079421777,rabbia,44.91102314577124,rabbia,1,,,,,,,,,,sad,[-265.0],[44.0],[1],[0],[0],[15.534845916629934],['rabbia_1'],0.010743772297814758,None,-10.821375652586662,soglievo,273.4995429612269,tristezza,3,[241.0],[-95.0],[1],[0],[0],[4.544701505169996],['tristezza_7'],0.0090767797674971,None,,,04,001,healthy,23,f,17,1,aurora,2022-03-28_10h02.25.547,pilot_AIM1,2022.1.1,84.99941520945407,
,,stimoli/02.subtle/JF2_Disgust.wmv,disgusted,subtle,femmina,6,10,1646,926,,,,,,,,,,,,,,,,,0,0,0,0,,,,,0,2,2,9,122.38067770656923,disprezzo,97.09788875150684,disprezzo,3,,,,,,,,,,disgusted,[-308.0],[82.0],[1],[0],[0],[5.864014701943574],['disprezzo_3'],0.010749212247333162,None,5.068403601147252,soddisfazione,259.4821766518849,disgusto,2,[195.0],[40.0],[1],[0],[0],[2.215308401938046],['disgusto_6'],0.009205098576671844,None,,,04,001,healthy,23,f,17,1,aurora,2022-03-28_10h02.25.547,pilot_AIM1,2022.1.1,84.99941520945407,
,,stimoli/01.full/M03-Anger-Face Forward.wmv,angry,full,maschio,4,6,720,576,,,,,,,,,,,,,,,,,0,0,0,0,,,,,0,3,3,35,104.1780644147069,rabbia,97.98469268207153,rabbia,3,,,,,,,,,,angry,[-280.0],[95.0],[1],[0],[0],[5.240464648488],['rabbia_3'],0.010801051766293313,None,0.3403669635174528,soddisfazione,256.50341128335896,neutral,1,[249.0],[3.0],[1],[0],[0],[1.2973566005307475],['neutral_5'],0.008959340857245479,None,,,04,001,healthy,23,f,17,1,aurora,2022-03-28_10h02.25.547,pilot_AIM1,2022.1.1,84.99941520945407,
,,stimoli/01.full/F01-Fear-Face Forward.wmv,fear,full,femmina,1,6,720,576,,,,,,,,,,,,,,,,,0,0,0,0,,,,,0,4,4,28,-77.33937707974127,sorpresa,141.4390328021229,sorpresa,4,,,,,,,,,,fear,[-225.0],[-138.0],[1],[0],[0],[6.863803503903455],['sorpresa_4'],0.01076009214636997,None,0.3344073672432,soddisfazione,256.52095430977954,neutral,1,[258.0],[3.0],[1],[0],[0],[1.80417589724766],['neutral_5'],0.009393896824690273,None,,,04,001,healthy,23,f,17,1,aurora,2022-03-28_10h02.25.547,pilot_AIM1,2022.1.1,84.99941520945407,
,,stimoli/02.subtle/JF1_Surprise.wmv,surprised,subtle,femmina,5,10,1646,926,,,,,,,,,,,,,,,,,0,0,0,0,,,,,0,5,5,20,-56.78052377691542,interesse,135.07405376311175,interesse,4,,,,,,,,,,surprised,[-182.0],[-113.0],[1],[0],[0],[7.616729956746099],['interesse_4'],0.01061097353021978,None,0.0,soddisfazione,256.49366463910957,neutral,1,[253.0],[0.0],[1],[0],[0],[1.3090963315860336],['neutral_5'],0.008890541495816251,None,,,04,001,healthy,23,f,17,1,aurora,2022-03-28_10h02.25.547,pilot_AIM1,2022.1.1,84.99941520945407,
,,stimoli/01.full/M03-Surprise-Face Forward.wmv,surprised,full,maschio,4,6,720,576,,,,,,,,,,,,,,,,,0,0,0,0,,,,,0,6,6,51,-80.7273982227997,sorpresa,148.94629904767692,sorpresa,4,,,,,,,,,,surprised,[-232.0],[-147.0],[1],[0],[0],[5.66380599988031],['sorpresa_4'],0.01067369294821674,None,-0.112344521736011,soglievo,256.4975633412528,neutral,1,[254.0],[-1.0],[1],[0],[0],[2.2152044029031686],['neutral_5'],0.009048620028806909,None,,,04,001,healthy,23,f,17,1,aurora,2022-03-28_10h02.25.547,pilot_AIM1,2022.1.1,84.99941520945407,
,,stimoli/02.subtle/JF2_Anger.wmv,angry,subtle,femmina,6,9,1646,926,,,,,,,,,,,,,,,,,0,0,0,0,,,,,0,7,7,5,170.47271661854765,invidia,145.0,invidia,4,,,,,,,,,,angry,[-399.0],[24.0],[1],[0],[0],[3.3229310831995917],['invidia_4'],0.010768732066139819,None,8.146273897478482,soddisfazione,266.1146369518219,rabbia,2,[240.0],[71.0],[1],[0],[0],[2.1327242083193596],['rabbia_6'],0.009094699601291723,None,,,04,001,healthy,23,f,17,1,aurora,2022-03-28_10h02.25.547,pilot_AIM1,2022.1.1,84.99941520945407,
,,stimoli/02.subtle/JF2_Fear.wmv,fear,subtle,femmina,6,10,1646,926,,,,,,,,,,,,,,,,,0,0,0,0,,,,,0,8,8,1,-122.7352262721076,paura,99.85990186255943,paura,3,,,,,,,,,,fear,[-310.0],[-84.0],[1],[0],[0],[7.346499184487584],['paura_3'],0.01083753142779642,None,-8.50085135256544,soglievo,269.9962962708933,interesse,3,[306.0],[-84.0],[1],[0],[0],[4.826619208973739],['interesse_7'],0.00897758068811072,None,,,04,001,healthy,23,f,17,1,aurora,2022-03-28_10h02.25.547,pilot_AIM1,2022.1.1,84.99941520945407,
,,stimoli/02.subtle/JF1_Anger.wmv,angry,subtle,femmina,5,10,1646,926,,,,,,,,,,,,,,,,,0,0,0,0,,,,,0,9,9,4,99.8193006387579,rabbia,105.54619841567009,rabbia,3,,,,,,,,,,angry,[-274.0],[104.0],[1],[0],[0],[3.040446664654951],['rabbia_3'],0.010785371911765651,None,-7.594643368591445,soglievo,264.82258211867054,tristezza,2,[239.0],[-66.0],[1],[0],[0],[1.7209878692325447],['tristezza_6'],0.009077419761752026,None,,,04,001,healthy,23,f,17,1,aurora,2022-03-28_10h02.25.547,pilot_AIM1,2022.1.1,84.99941520945407,
,,stimoli/02.subtle/JF2_Neutral.wmv,neutral,subtle,femmina,6,9,1646,926,,,,,,,,,,,,,,,,,0,0,0,0,,,,,0,10,10,25,0.0,soddisfazione,0.0,neutral,1,,,,,,,,,,neutral,[-256.0],[0.0],[1],[0],[0],[0.9228205562251333],['neutral_1'],0.010804891730572308,None,0.0,soddisfazione,256.4975633412528,neutral,1,[255.0],[0.0],[1],[0],[0],[1.6504915634382087],['neutral_5'],0.009052459993313278,None,,,04,001,healthy,23,f,17,1,aurora,2022-03-28_10h02.25.547,pilot_AIM1,2022.1.1,84.99941520945407,
,,stimoli/01.full/F03-Joy-Face Forward.wmv,happy,full,femmina,2,6,720,576,,,,,,,,,,,,,,,,,0,0,0,0,,,,,0,11,11,41,32.760400163068155,gioia,136.75159962501354,gioia,4,,,,,,,,,,happy,[-141.0],[74.0],[1],[0],[0],[4.616628837684402],['gioia_4'],0.010676892918468184,None,-0.22381050036853808,soglievo,256.50730983736116,neutral,1,[256.0],[-2.0],[1],[0],[0],[2.4507503770364565],['neutral_5'],0.009381736937484675,None,,,04,001,healthy,23,f,17,1,aurora,2022-03-28_10h02.25.547,pilot_AIM1,2022.1.1,84.99941520945407,
,,stimoli/01.full/M02-Fear-Face Forward.wmv,fear,full,maschio,3,6,720,576,,,,,,,,,,,,,,,,,0,0,0,0,,,,,0,12,12,30,-125.4399035191137,paura,136.24243098242192,paura,4,,,,,,,,,,fear,[-335.0],[-111.0],[1],[0],[0],[3.675572930683188],['paura_4'],0.010734492384017358,None,-9.811256867996049,soglievo,272.53623612283195,sorpresa,3,[276.0],[-92.0],[1],[0],[0],[5.603558878973558],['sorpresa_7'],0.009185258760908255,None,,,04,001,healthy,23,f,17,1,aurora,2022-03-28_10h02.25.547,pilot_AIM1,2022.1.1,84.99941520945407,
,,stimoli/02.subtle/JM1_Disgust.wmv,disgusted,subtle,maschio,7,10,1646,926,,,,,,,,,,,,,,,,,0,0,0,0,,,,,0,13,13,10,-170.4399035191137,colpa,96.33794683301072,colpa,3,,,,,,,,,,disgusted,[-351.0],[-16.0],[1],[0],[0],[4.734543263438582],['colpa_3'],0.010859291225756351,None,-7.259724046259812,soglievo,263.34578029655233,paura,2,[215.0],[-60.0],[1],[0],[0],[6.097634613950845],['paura_6'],0.009136939209270167,None,,,04,001,healthy,23,f,17,1,aurora,2022-03-28_10h02.25.547,pilot_AIM1,2022.1.1,84.99941520945407,
,,stimoli/01.full/F03-Sadness-Face Forward.wmv,sad,full,femmina,2,6,720,576,,,,,,,,,,,,,,,,,0,0,0,0,,,,,0,14,14,45,-103.2848664849022,tristezza,147.95945390545344,tristezza,4,,,,,,,,,,sad,[-290.0],[-144.0],[1],[0],[0],[1.8403656414068337],['tristezza_4'],0.010690972787870123,None,0.2255727696340518,soddisfazione,256.4995126701024,neutral,1,[252.0],[2.0],[1],[0],[0],[1.7094385364104028],['neutral_5'],0.009318057528389545,None,,,04,001,healthy,23,f,17,1,aurora,2022-03-28_10h02.25.547,pilot_AIM1,2022.1.1,84.99941520945407,
,,stimoli/01.full/F01-Sadness-Face Forward.wmv,sad,full,femmina,1,6,720,576,,,,,,,,,,,,,,,,,0,0,0,0,,,,,0,15,15,44,-166.349580865243,colpa,144.06942770761603,colpa,4,,,,,,,,,,sad,[-396.0],[-34.0],[1],[0],[0],[4.240394569138402],['colpa_4'],0.010814491641554014,None,-10.84267628147007,soglievo,273.497714798497,tristezza,3,[240.0],[-95.0],[1],[0],[0],[4.191548942425811],['tristezza_7'],0.0092182184550893,None,,,04,001,healthy,23,f,17,1,aurora,2022-03-28_10h02.25.547,pilot_AIM1,2022.1.1,84.99941520945407,
,,stimoli/02.subtle/JF1_Happiness.wmv,happy,subtle,femmina,5,10,1646,926,,,,,,,,,,,,,,,,,0,0,0,0,,,,,0,16,16,12,-12.179181052524134,soglievo,142.20056258679148,sollievo,4,,,,,,,,,,happy,[-117.0],[-30.0],[1],[0],[0],[4.73450134382756],['sollievo_4'],0.010809691686176848,None,5.220651230623926,soddisfazione,262.27275878367544,gioia,3,[335.0],[54.0],[1],[0],[0],[1.5095379914873774],['gioia_7'],0.009263018039291637,None,,,04,001,healthy,23,f,17,1,aurora,2022-03-28_10h02.25.547,pilot_AIM1,2022.1.1,84.99941520945407,
,,stimoli/01.full/F03-Neutral-Face Forward.wmv,neutral,full,femmina,2,6,720,576,,,,,,,,,,,,,,,,,0,0,0,0,,,,,0,17,17,53,-168.6900675259798,colpa,5.0990195135927845,neutral,1,,,,,,,,,,neutral,[-261.0],[-1.0],[1],[0],[0],[1.1462946423856692],['neutral_1'],0.0107940118315355,None,0.0,soddisfazione,256.49366463910957,neutral,1,[253.0],[0.0],[1],[0],[0],[1.509123595333108],['neutral_5'],0.008836142000745895,None,,,04,001,healthy,23,f,17,1,aurora,2022-03-28_10h02.25.547,pilot_AIM1,2022.1.1,84.99941520945407,
,,stimoli/02.subtle/JM2_Fear.wmv,fear,subtle,maschio,8,10,1646,926,,,,,,,,,,,,,,,,,0,0,0,0,,,,,0,18,18,3,-124.38034472384487,paura,69.06518659932803,paura,2,,,,,,,,,,fear,[-295.0],[-57.0],[1],[0],[0],[18.07602393449781],['paura_2'],0.010855451261477356,None,-0.112344521736011,soglievo,256.4975633412528,neutral,1,[254.0],[-1.0],[1],[0],[0],[1.5092947937442887],['neutral_5'],0.009136619212313235,None,,,04,001,healthy,23,f,17,1,aurora,2022-03-28_10h02.25.547,pilot_AIM1,2022.1.1,84.99941520945407,
,,stimoli/01.full/M02-Neutral-Face Forward.wmv,neutral,full,maschio,3,6,720,576,,,,,,,,,,,,,,,,,0,0,0,0,,,,,0,19,19,54,135.0,disgusto,4.242640687119285,neutral,1,,,,,,,,,,neutral,[-259.0],[3.0],[1],[0],[0],[3.04051290404027],['neutral_1'],0.010779611965290314,None,3.90049374238189,soddisfazione,259.5630944491146,gioia,2,[316.0],[39.0],[1],[0],[0],[3.6271173803506827],['gioia_6'],0.009087979663490842,None,,,04,001,healthy,23,f,17,1,aurora,2022-03-28_10h02.25.547,pilot_AIM1,2022.1.1,84.99941520945407,
,,stimoli/01.full/M02-Disgust-Face Forward.wmv,disgusted,full,maschio,3,6,720,576,,,,,,,,,,,,,,,,,0,0,0,0,,,,,0,20,20,38,124.15969454566944,disprezzo,135.35139452550905,disprezzo,4,,,,,,,,,,disgusted,[-332.0],[112.0],[1],[0],[0],[2.8288467083025353],['disprezzo_4'],0.01085257128829653,None,4.553767979158628,soddisfazione,258.897663179875,disgusto,2,[196.0],[36.0],[1],[0],[0],[2.144233861509747],['disgusto_6'],0.009011500373389936,None,,,04,001,healthy,23,f,17,1,aurora,2022-03-28_10h02.25.547,pilot_AIM1,2022.1.1,84.99941520945407,
,,stimoli/02.subtle/JF2_Sadness.wmv,sad,subtle,femmina,6,8,1646,926,,,,,,,,,,,,,,,,,0,0,0,0,,,,,0,21,21,17,-165.4655449194599,colpa,139.46325680981354,colpa,4,,,,,,,,,,sad,[-391.0],[-35.0],[1],[0],[0],[4.38153757933128],['colpa_4'],0.010753052211839531,None,-10.752381180020123,soglievo,273.1501418634082,tristezza,3,[239.0],[-94.0],[1],[0],[0],[2.1445839382610075],['tristezza_7'],0.009140779173776536,None,,,04,001,healthy,23,f,17,1,aurora,2022-03-28_10h02.25.547,pilot_AIM1,2022.1.1,84.99941520945407,
,,stimoli/02.subtle/JM2_Surprise.wmv,surprised,subtle,maschio,8,10,1646,926,,,,,,,,,,,,,,,,,0,0,0,0,,,,,0,22,22,23,-35.08347387909274,speranza,102.6498904042279,speranza,3,,,,,,,,,,surprised,[-172.0],[-59.0],[1],[0],[0],[5.793489916413591],['speranza_3'],0.010719132526560315,None,1.3827330710976722,soddisfazione,257.01361831622853,soddisfazione,2,[324.0],[14.0],[1],[0],[0],[5.662503291969415],['soddisfazione_6'],0.009309737605690316,None,,,04,001,healthy,23,f,17,1,aurora,2022-03-28_10h02.25.547,pilot_AIM1,2022.1.1,84.99941520945407,
,,stimoli/01.full/F01-Neutral-Face Forward.wmv,neutral,full,femmina,1,6,720,576,,,,,,,,,,,,,,,,,0,0,0,0,,,,,0,23,23,52,180.0,soddisfazione,2.0,neutral,1,,,,,,,,,,neutral,[-258.0],[0.0],[1],[0],[0],[0.9227440769350324],['neutral_1'],0.010714652568140082,None,-4.736231815837553,soglievo,260.09229131214175,sorpresa,1,[263.0],[-43.0],[1],[0],[0],[3.132650609002326],['sorpresa_5'],0.00894622097928277,None,,,04,001,healthy,23,f,17,1,aurora,2022-03-28_10h02.25.547,pilot_AIM1,2022.1.1,84.99941520945407,
,,stimoli/01.full/M03-Joy-Face Forward.wmv,happy,full,maschio,4,6,720,576,,,,,,,,,,,,,,,,,0,0,0,0,,,,,0,24,24,43,34.99202019855866,gioia,134.27211177307072,gioia,4,,,,,,,,,,happy,[-146.0],[77.0],[1],[0],[0],[3.0402348266208037],['gioia_4'],0.010702812677891416,None,-0.112344521736011,soglievo,256.4975633412528,neutral,1,[254.0],[-1.0],[1],[0],[0],[2.0741036323182698],['neutral_5'],0.009147499111350044,None,,,04,001,healthy,23,f,17,1,aurora,2022-03-28_10h02.25.547,pilot_AIM1,2022.1.1,84.99941520945407,
,,stimoli/01.full/F03-Anger-Face Forward.wmv,angry,full,femmina,2,6,720,576,,,,,,,,,,,,,,,,,0,0,0,0,,,,,0,25,25,33,102.61932229343078,rabbia,137.31715115017496,rabbia,4,,,,,,,,,,angry,[-286.0],[134.0],[1],[0],[0],[3.6756718097656176],['rabbia_4'],0.01074761226220744,None,4.335851523980678,soddisfazione,259.108085555044,disprezzo,1,[232.0],[37.0],[1],[0],[0],[6.662680570324255],['disprezzo_5'],0.00922525838961974,None,,,04,001,healthy,23,f,17,1,aurora,2022-03-28_10h02.25.547,pilot_AIM1,2022.1.1,84.99941520945407,
,,stimoli/01.full/M03-Disgust-Face Forward.wmv,disgusted,full,maschio,4,6,720,576,,,,,,,,,,,,,,,,,0,0,0,0,,,,,0,26,26,39,123.23171106797936,disprezzo,104.0096149401583,disprezzo,3,,,,,,,,,,disgusted,[-313.0],[87.0],[1],[0],[0],[3.1109919299949524],['disprezzo_3'],0.010778011980050906,None,5.019086835548597,soddisfazione,260.2249027283899,rabbia,1,[245.0],[44.0],[1],[0],[0],[3.192008778158538],['rabbia_5'],0.009390056860411278,None,,,04,001,healthy,23,f,17,1,aurora,2022-03-28_10h02.25.547,pilot_AIM1,2022.1.1,84.99941520945407,
,,stimoli/02.subtle/JF1_Neutral.wmv,neutral,subtle,femmina,5,10,1646,926,,,,,,,,,,,,,,,,,0,0,0,0,,,,,0,27,27,24,180.0,soddisfazione,5.0,neutral,1,,,,,,,,,,neutral,[-261.0],[0.0],[1],[0],[0],[1.9108776270556973],['neutral_1'],0.010716572550222736,None,-1.4688007143858246,soglievo,257.079754162011,sollievo,2,[329.0],[-15.0],[1],[0],[0],[2.7802385193865575],['sollievo_6'],0.009146219123181254,None,,,04,001,healthy,23,f,17,1,aurora,2022-03-28_10h02.25.547,pilot_AIM1,2022.1.1,84.99941520945407,
,,stimoli/02.subtle/JM2_Anger.wmv,angry,subtle,maschio,8,10,1646,926,,,,,,,,,,,,,,,,,0,0,0,0,,,,,0,28,28,7,102.3390872783262,rabbia,98.2700361249552,rabbia,3,,,,,,,,,,angry,[-277.0],[96.0],[1],[0],[0],[2.1933297259001847],['rabbia_3'],0.010720412514729105,None,0.22601768172841377,soddisfazione,256.4975633412528,neutral,1,[251.0],[2.0],[1],[0],[0],[2.0740079532060918],['neutral_5'],0.009125739313276426,None,,,04,001,healthy,23,f,17,1,aurora,2022-03-28_10h02.25.547,pilot_AIM1,2022.1.1,84.99941520945407,
,,stimoli/01.full/M03-Sadness-Face Forward.wmv,sad,full,maschio,4,6,720,576,,,,,,,,,,,,,,,,,0,0,0,0,,,,,0,29,29,47,-103.46520809481171,tristezza,73.00684899377592,tristezza,2,,,,,,,,,,sad,[-273.0],[-71.0],[1],[0],[0],[4.110881531019459],['tristezza_2'],0.010693212767137084,None,0.0,soddisfazione,256.49366463910957,neutral,1,[253.0],[0.0],[1],[0],[0],[1.4387175287013179],['neutral_5'],0.009185578757978874,None,,,04,001,healthy,23,f,17,1,aurora,2022-03-28_10h02.25.547,pilot_AIM1,2022.1.1,84.99941520945407,
,,stimoli/01.full/F01-Surprise-Face Forward.wmv,surprised,full,femmina,1,6,720,576,,,,,,,,,,,,,,,,,0,0,0,0,,,,,0,30,30,48,-75.7685416843574,sorpresa,142.36923825040296,sorpresa,4,,,,,,,,,,surprised,[-221.0],[-138.0],[1],[0],[0],[2.275521283162334],['sorpresa_4'],0.01073609236914308,None,10.755552245093305,soddisfazione,270.7526546499591,disprezzo,3,[202.0],[87.0],[1],[0],[0],[7.015500336156947],['disprezzo_7'],0.00925373812538055,None,,,04,001,healthy,23,f,17,1,aurora,2022-03-28_10h02.25.547,pilot_AIM1,2022.1.1,84.99941520945407,
,,stimoli/01.full/F03-Disgust-Face Forward.wmv,disgusted,full,femmina,2,6,720,576,,,,,,,,,,,,,,,,,0,0,0,0,,,,,0,31,31,37,146.54049774660933,disgusto,137.84411485442533,disgusto,4,,,,,,,,,,disgusted,[-371.0],[76.0],[1],[0],[0],[2.487368917216372],['disgusto_4'],0.010611613523906271,None,0.1125652373213464,soddisfazione,256.49561399758863,neutral,1,[253.0],[1.0],[1],[0],[0],[1.1562107103645758],['neutral_5'],0.008919981222561546,None,,,04,001,healthy,23,f,17,1,aurora,2022-03-28_10h02.25.547,pilot_AIM1,2022.1.1,84.99941520945407,
,,stimoli/02.subtle/JF2_Surprise.wmv,surprised,subtle,femmina,6,10,1646,926,,,,,,,,,,,,,,,,,0,0,0,0,,,,,0,32,32,21,122.84040427147349,disprezzo,130.92364186807515,disprezzo,4,,,,,,,,,,surprised,[-327.0],[110.0],[1],[0],[0],[6.216952546680432],['disprezzo_4'],0.010790491864327123,None,2.904694385091213,soddisfazione,257.5441709687874,disgusto,1,[217.0],[24.0],[1],[0],[0],[3.0503649726131243],['disgusto_5'],0.008926061166221189,None,,,04,001,healthy,23,f,17,1,aurora,2022-03-28_10h02.25.547,pilot_AIM1,2022.1.1,84.99941520945407,
,,stimoli/01.full/F01-Anger-Face Forward.wmv,angry,full,femmina,1,6,720,576,,,,,,,,,,,,,,,,,0,0,0,0,,,,,0,33,33,32,100.61965527615514,rabbia,97.67292357659824,rabbia,3,,,,,,,,,,angry,[-274.0],[96.0],[1],[0],[0],[5.381765737213982],['rabbia_3'],0.010753052211612157,None,4.812321185821136,soddisfazione,259.7075278077245,disprezzo,1,[231.0],[41.0],[1],[0],[0],[6.580364534217097],['disprezzo_5'],0.009353897195978789,None,,,04,001,healthy,23,f,17,1,aurora,2022-03-28_10h02.25.547,pilot_AIM1,2022.1.1,84.99941520945407,
,,stimoli/02.subtle/JF2_Happiness.wmv,happy,subtle,femmina,6,9,1646,926,,,,,,,,,,,,,,,,,0,0,0,0,,,,,0,34,34,13,11.475526751423041,soddisfazione,135.71293232407882,soddisfazione,4,,,,,,,,,,happy,[-123.0],[27.0],[1],[0],[0],[4.664310315200282],['soddisfazione_4'],0.010840731398275238,None,7.5156939541157035,soddisfazione,265.6388525799643,orgoglio,2,[267.0],[69.0],[1],[0],[0],[1.7213139462064646],['orgoglio_6'],0.00891998122278892,None,,,04,001,healthy,23,f,17,1,aurora,2022-03-28_10h02.25.547,pilot_AIM1,2022.1.1,84.99941520945407,
,,stimoli/02.subtle/JM2_Disgust.wmv,disgusted,subtle,maschio,8,10,1646,926,,,,,,,,,,,,,,,,,0,0,0,0,,,,,0,35,35,11,-166.63306930368316,colpa,103.81233067415451,colpa,3,,,,,,,,,,disgusted,[-357.0],[-24.0],[1],[0],[0],[3.887249366325932],['colpa_3'],0.010697372728145638,None,-3.019131849137267,soglievo,257.64122340960887,vergogna,1,[218.0],[-25.0],[1],[0],[0],[3.6270879406238237],['vergogna_5'],0.009287977807844072,None,,,04,001,healthy,23,f,17,1,aurora,2022-03-28_10h02.25.547,pilot_AIM1,2022.1.1,84.99941520945407,
,,stimoli/01.full/F01-Disgust-Face Forward.wmv,disgusted,full,femmina,1,6,720,576,,,,,,,,,,,,,,,,,0,0,0,0,,,,,0,36,36,36,149.03624346792648,disgusto,151.6047492659778,disgusto,4,,,,,,,,,,disgusted,[-386.0],[78.0],[1],[0],[0],[1.8402520424610884],['disgusto_4'],0.010751452226486435,None,6.499346279654567,soddisfazione,262.0496136230695,disprezzo,2,[218.0],[54.0],[1],[0],[0],[2.0033564488521733],['disprezzo_6'],0.00907325980006135,None,,,04,001,healthy,23,f,17,1,aurora,2022-03-28_10h02.25.547,pilot_AIM1,2022.1.1,84.99941520945407,
,,stimoli/02.subtle/JM1_Surprise.wmv,surprised,subtle,maschio,7,10,1646,926,,,,,,,,,,,,,,,,,0,0,0,0,,,,,0,37,37,22,-79.33021719550332,sorpresa,70.21395872616783,sorpresa,2,,,,,,,,,,surprised,[-243.0],[-69.0],[1],[0],[0],[1.840238602585714],['sorpresa_2'],0.010692572772768472,None,-0.22512960569376392,soglievo,256.5014619841376,neutral,1,[253.0],[-2.0],[1],[0],[0],[1.9211300119136467],['neutral_5'],0.009192618692395627,None,,,04,001,healthy,23,f,17,1,aurora,2022-03-28_10h02.25.547,pilot_AIM1,2022.1.1,84.99941520945407,
,,stimoli/01.full/M03-Neutral-Face Forward.wmv,neutral,full,maschio,4,6,720,576,,,,,,,,,,,,,,,,,0,0,0,0,,,,,0,38,38,55,123.69006752597979,disprezzo,3.605551275463989,neutral,1,,,,,,,,,,neutral,[-258.0],[3.0],[1],[0],[0],[1.4871625191317435],['neutral_1'],0.010777371986023354,None,0.11125380097907195,soddisfazione,256.50730983736116,neutral,1,[259.0],[1.0],[1],[0],[0],[1.2157842375222572],['neutral_5'],0.009727333730097598,None,,,04,001,healthy,23,f,17,1,aurora,2022-03-28_10h02.25.547,pilot_AIM1,2022.1.1,84.99941520945407,
,,stimoli/02.subtle/JM1_Happiness.wmv,happy,subtle,maschio,7,10,1646,926,,,,,,,,,,,,,,,,,0,0,0,0,,,,,0,39,39,14,33.05582281155367,gioia,75.16648189186454,gioia,2,,,,,,,,,,happy,[-193.0],[41.0],[1],[0],[0],[7.134676510201871],['gioia_2'],0.010818011608989764,None,-5.577204206984222,soglievo,262.20030511042506,interesse,2,[297.0],[-54.0],[1],[0],[0],[3.415128947603307],['interesse_6'],0.009046380049539948,None,,,04,001,healthy,23,f,17,1,aurora,2022-03-28_10h02.25.547,pilot_AIM1,2022.1.1,84.99941520945407,
,,stimoli/01.full/M02-Surprise-Face Forward.wmv,surprised,full,maschio,3,6,720,576,,,,,,,,,,,,,,,,,0,0,0,0,,,,,0,40,40,50,-81.29777621005321,sorpresa,99.14131328563285,sorpresa,3,,,,,,,,,,surprised,[-241.0],[-98.0],[1],[0],[0],[1.557890182779147],['sorpresa_3'],0.01064937317391923,None,0.22512960569376392,soddisfazione,256.5014619841376,neutral,1,[253.0],[2.0],[1],[0],[0],[1.5796986203965844],['neutral_5'],0.008906221350116539,None,,,04,001,healthy,23,f,17,1,aurora,2022-03-28_10h02.25.547,pilot_AIM1,2022.1.1,84.99941520945407,
,,stimoli/02.subtle/JM1_Anger.wmv,angry,subtle,maschio,7,10,1646,926,,,,,,,,,,,,,,,,,0,0,0,0,,,,,0,41,41,6,97.79207807821844,rabbia,95.88534820294495,rabbia,3,,,,,,,,,,angry,[-269.0],[95.0],[1],[0],[0],[3.1109919299949524],['rabbia_3'],0.010824731546790645,None,-3.9342212292646095,soglievo,259.2045524291578,interesse,1,[282.0],[-37.0],[1],[0],[0],[2.850632426131142],['interesse_5'],0.009196458656788309,None,,,04,001,healthy,23,f,17,1,aurora,2022-03-28_10h02.25.547,pilot_AIM1,2022.1.1,84.99941520945407,
,,stimoli/01.full/M02-Sadness-Face Forward.wmv,sad,full,maschio,3,6,720,576,,,,,,,,,,,,,,,,,0,0,0,0,,,,,0,42,42,46,-102.05078488340955,tristezza,91.00549433962765,tristezza,3,,,,,,,,,,sad,[-275.0],[-89.0],[1],[0],[0],[3.1933783654487797],['tristezza_3'],0.010673052954189188,None,-7.2060570013832725,soglievo,264.87355473886026,sorpresa,2,[266.0],[-66.0],[1],[0],[0],[1.7209209898530844],['sorpresa_6'],0.009026860230278544,None,,,04,001,healthy,23,f,17,1,aurora,2022-03-28_10h02.25.547,pilot_AIM1,2022.1.1,84.99941520945407,
,,stimoli/02.subtle/JM2_Neutral.wmv,neutral,subtle,maschio,8,10,1646,926,,,,,,,,,,,,,,,,,0,0,0,0,,,,,0,43,43,27,-45.0,interesse,1.4142135623730951,neutral,1,,,,,,,,,,neutral,[-255.0],[-1.0],[1],[0],[0],[1.204806419396391],['neutral_1'],0.010774812009685775,None,0.557334361658765,soddisfazione,256.5521389503506,neutral,1,[258.0],[5.0],[1],[0],[0],[1.9331718201656258],['neutral_5'],0.009182058790202063,None,,,04,001,healthy,23,f,17,1,aurora,2022-03-28_10h02.25.547,pilot_AIM1,2022.1.1,84.99941520945407,
,,stimoli/01.full/M02-Anger-Face Forward.wmv,angry,full,maschio,3,6,720,576,,,,,,,,,,,,,,,,,0,0,0,0,,,,,0,44,44,34,101.659292653523,rabbia,64.32728814430156,rabbia,2,,,,,,,,,,angry,[-269.0],[63.0],[1],[0],[0],[2.616784356241169],['rabbia_2'],0.0107079326303392,None,0.22381050036853808,soddisfazione,256.50730983736116,neutral,1,[256.0],[2.0],[1],[0],[0],[3.203622110386732],['neutral_5'],0.00925053815467436,None,,,04,001,healthy,23,f,17,1,aurora,2022-03-28_10h02.25.547,pilot_AIM1,2022.1.1,84.99941520945407,
,,stimoli/02.subtle/JM1_Neutral.wmv,neutral,subtle,maschio,7,10,1646,926,,,,,,,,,,,,,,,,,0,0,0,0,,,,,0,45,45,26,124.69515353123397,disprezzo,47.43416490252569,disprezzo,1,,,,,,,,,,neutral,[-283.0],[39.0],[1],[0],[0],[7.558154180329211],['disprezzo_1'],0.010822171569998318,None,0.0,soddisfazione,256.4975633412528,neutral,1,[255.0],[0.0],[1],[0],[0],[1.4269912375211788],['neutral_5'],0.009163818959677883,None,,,04,001,healthy,23,f,17,1,aurora,2022-03-28_10h02.25.547,pilot_AIM1,2022.1.1,84.99941520945407,
,,stimoli/02.subtle/JM2_Sadness.wmv,sad,subtle,maschio,8,10,1646,926,,,,,,,,,,,,,,,,,0,0,0,0,,,,,0,46,46,19,-144.74364128703718,vergogna,71.02816342831905,vergogna,2,,,,,,,,,,sad,[-314.0],[-41.0],[1],[0],[0],[3.393443388845526],['vergogna_2'],0.01081833160583301,None,-0.2246881796245023,soglievo,256.50341128335896,neutral,1,[254.0],[-2.0],[1],[0],[0],[1.2974727594528304],['neutral_5'],0.00911389942302776,None,,,04,001,healthy,23,f,17,1,aurora,2022-03-28_10h02.25.547,pilot_AIM1,2022.1.1,84.99941520945407,
,,stimoli/02.subtle/JM1_Sadness.wmv,sad,subtle,maschio,7,10,1646,926,,,,,,,,,,,,,,,,,0,0,0,0,,,,,0,47,47,18,166.89079180184572,invidia,74.95331880577403,invidia,2,,,,,,,,,,sad,[-329.0],[17.0],[1],[0],[0],[2.4050474411599225],['invidia_2'],0.010739932333535762,None,-7.760042088952938,soglievo,265.3356365059168,tristezza,2,[243.0],[-68.0],[1],[0],[0],[2.1445727383650137],['tristezza_6'],0.009168938912125668,None,,,04,001,healthy,23,f,17,1,aurora,2022-03-28_10h02.25.547,pilot_AIM1,2022.1.1,84.99941520945407,
,,stimoli/02.subtle/JF1_Disgust.wmv,disgusted,subtle,femmina,5,10,1646,926,,,,,,,,,,,,,,,,,0,0,0,0,,,,,0,48,48,8,-169.54836705601133,colpa,104.7377677822093,colpa,3,,,,,,,,,,disgusted,[-359.0],[-19.0],[1],[0],[0],[3.18162551451519],['colpa_3'],0.01083081148999554,None,-7.224315694045337,soglievo,264.09467999185443,tristezza,2,[241.0],[-63.0],[1],[0],[0],[2.273759379512967],['tristezza_6'],0.008955820889696042,None,,,04,001,healthy,23,f,17,1,aurora,2022-03-28_10h02.25.547,pilot_AIM1,2022.1.1,84.99941520945407,
,,stimoli/01.full/F01-Joy-Face Forward.wmv,happy,full,femmina,1,6,720,576,,,,,,,,,,,,,,,,,0,0,0,0,,,,,0,49,49,40,35.87499135206403,gioia,138.2208377922808,gioia,4,,,,,,,,,,happy,[-144.0],[81.0],[1],[0],[0],[2.4757939846319914],['gioia_4'],0.010796251810688773,None,0.0,soddisfazione,256.4917152658152,neutral,1,[252.0],[0.0],[1],[0],[0],[1.862356477332014],['neutral_5'],0.009240618246849408,None,,,04,001,healthy,23,f,17,1,aurora,2022-03-28_10h02.25.547,pilot_AIM1,2022.1.1,84.99941520945407,
,,stimoli/01.full/M02-Joy-Face Forward.wmv,happy,full,maschio,3,6,720,576,,,,,,,,,,,,,,,,,0,0,0,0,,,,,0,50,50,42,31.96134341697703,gioia,137.90576492663388,gioia,4,,,,,,,,,,happy,[-139.0],[73.0],[1],[0],[0],[2.0524462332989515],['gioia_4'],0.010961370278437244,None,0.1125652373213464,soddisfazione,256.49561399758863,neutral,1,[253.0],[1.0],[1],[0],[0],[0.9442533173291849],['neutral_5'],0.00888030159057962,None,,,04,001,healthy,23,f,17,1,aurora,2022-03-28_10h02.25.547,pilot_AIM1,2022.1.1,84.99941520945407,
,,stimoli/02.subtle/JM2_Happiness.wmv,happy,subtle,maschio,8,10,1646,926,,,,,,,,,,,,,,,,,0,0,0,0,,,,,0,51,51,15,34.41836447905621,gioia,65.45991139621256,gioia,2,,,,,,,,,,happy,[-202.0],[37.0],[1],[0],[0],[2.264138988790137],['gioia_2'],0.010808411697780684,None,-6.8686912845874,soglievo,264.1439001756429,sorpresa,2,[267.0],[-63.0],[1],[0],[0],[2.920990173211294],['sorpresa_6'],0.00889758143034669,None,,,04,001,healthy,23,f,17,1,aurora,2022-03-28_10h02.25.547,pilot_AIM1,2022.1.1,84.99941520945407,
,,stimoli/02.subtle/JM1_Fear.wmv,fear,subtle,maschio,7,10,1646,926,,,,,,,,,,,,,,,,,0,0,0,0,,,,,0,52,52,2,-127.43160297841057,paura,102.00490184299969,paura,3,,,,,,,,,,fear,[-318.0],[-81.0],[1],[0],[0],[1.9111422645999028],['paura_3'],0.010815131635581565,None,-8.837421722700235,soglievo,271.2747684544215,interesse,3,[310.0],[-88.0],[1],[0],[0],[3.8387182966941964],['interesse_7'],0.008999020489000031,None,,,04,001,healthy,23,f,17,1,aurora,2022-03-28_10h02.25.547,pilot_AIM1,2022.1.1,84.99941520945407,
,,stimoli/01.full/F03-Fear-Face Forward.wmv,fear,full,femmina,2,6,720,576,,,,,,,,,,,,,,,,,0,0,0,0,,,,,0,53,53,29,-78.04812486997523,sorpresa,140.03570973148243,sorpresa,4,,,,,,,,,,fear,[-227.0],[-137.0],[1],[0],[0],[1.9111931441275374],['sorpresa_4'],0.010875291077354632,None,-16.105142084148863,soglievo,284.3149661906668,paura,4,[170.0],[-123.0],[1],[0],[0],[1.650495723399672],['paura_8'],0.00917501885578531,None,,,04,001,healthy,23,f,17,1,aurora,2022-03-28_10h02.25.547,pilot_AIM1,2022.1.1,84.99941520945407,
,,stimoli/01.full/M03-Fear-Face Forward.wmv,fear,full,maschio,4,6,720,576,,,,,,,,,,,,,,,,,0,0,0,0,,,,,0,54,54,31,-79.65835470552109,sorpresa,139.26234236145822,sorpresa,4,,,,,,,,,,fear,[-231.0],[-137.0],[1],[0],[0],[3.1225163030487693],['sorpresa_4'],0.010630493348799064,None,-14.49804791815617,soglievo,280.1535293370405,paura,4,[181.0],[-113.0],[1],[0],[0],[1.509425992526758],['paura_8'],0.009253098131239312,None,,,04,001,healthy,23,f,17,1,aurora,2022-03-28_10h02.25.547,pilot_AIM1,2022.1.1,84.99941520945407,
,,stimoli/01.full/F03-Surprise-Face Forward.wmv,surprised,full,femmina,2,6,720,576,,,,,,,,,,,,,,,,,0,0,0,0,,,,,0,55,55,49,-78.77110817846128,sorpresa,138.6542462386205,sorpresa,4,,,,,,,,,,surprised,[-229.0],[-136.0],[1],[0],[0],[2.193277886381111],['sorpresa_4'],0.0108004117719247,None,4.953257477842062,soddisfazione,259.32797766534947,disgusto,2,[194.0],[39.0],[1],[0],[0],[2.14452089884594],['disgusto_6'],0.008964140812622645,None,,,04,001,healthy,23,f,17,1,aurora,2022-03-28_10h02.25.547,pilot_AIM1,2022.1.1,84.99941520945407,
,,stimoli/02.subtle/JF1_Neutral.wmv,neutral,subtle,femmina,5,10,1646,926,,,,,,,,,,,,,,,,,1,0,1,0,,,,,0,0,0,24,26.56505117707799,gioia,2.23606797749979,neutral,1,,,,,,,,,,neutral,[-254.0],[1.0],[1],[0],[0],[1.698999273286745],['neutral_1'],0.010672092962749957,None,0.33182512893683347,soddisfazione,256.5287508253217,neutral,1,[262.0],[3.0],[1],[0],[0],[1.2967534061283459],['neutral_5'],0.008316786819932531,None,,,04,001,healthy,23,f,17,1,aurora,2022-03-28_10h02.25.547,pilot_AIM1,2022.1.1,84.99941520945407,
,,stimoli/01.full/M02-Sadness-Face Forward.wmv,sad,full,maschio,3,6,720,576,,,,,,,,,,,,,,,,,1,0,1,0,,,,,0,1,1,46,-124.47921568612564,paura,100.68763578513501,paura,3,,,,,,,,,,sad,[-313.0],[-83.0],[1],[0],[0],[3.1817051937757697],['paura_3'],0.010930650563523159,None,-7.2060570013832725,soglievo,264.87355473886026,sorpresa,2,[266.0],[-66.0],[1],[0],[0],[3.8387512563883774],['sorpresa_6'],0.009095659592048833,None,,,04,001,healthy,23,f,17,1,aurora,2022-03-28_10h02.25.547,pilot_AIM1,2022.1.1,84.99941520945407,
,,stimoli/02.subtle/JF2_Disgust.wmv,disgusted,subtle,femmina,6,10,1646,926,,,,,,,,,,,,,,,,,1,0,1,0,,,,,0,2,2,9,168.4762782961027,invidia,105.11898020814318,invidia,3,,,,,,,,,,disgusted,[-359.0],[21.0],[1],[0],[0],[3.1815903148419693],['invidia_3'],0.010809371688992542,None,10.772647648220703,soddisfazione,270.42189260487027,disprezzo,3,[196.0],[86.0],[1],[0],[0],[3.2740992163594456],['disprezzo_7'],0.009274217934944318,None,,,04,001,healthy,23,f,17,1,aurora,2022-03-28_10h02.25.547,pilot_AIM1,2022.1.1,84.99941520945407,
,,stimoli/02.subtle/JM1_Happiness.wmv,happy,subtle,maschio,7,10,1646,926,,,,,,,,,,,,,,,,,1,0,1,0,,,,,0,3,3,14,34.80401175271321,gioia,99.86490875177326,gioia,3,,,,,,,,,,happy,[-174.0],[57.0],[1],[0],[0],[5.934567967209205],['gioia_3'],0.010767772075041648,None,-1.032244691565731,soglievo,256.77811433219927,sollievo,1,[299.0],[-10.0],[1],[0],[0],[2.2151976829654814],['sollievo_5'],0.009192618692395627,None,,,04,001,healthy,23,f,17,1,aurora,2022-03-28_10h02.25.547,pilot_AIM1,2022.1.1,84.99941520945407,
,,stimoli/02.subtle/JF1_Happiness.wmv,happy,subtle,femmina,5,10,1646,926,,,,,,,,,,,,,,,,,1,0,1,0,,,,,0,4,4,12,36.02737338510361,gioia,136.01470508735443,gioia,4,,,,,,,,,,happy,[-146.0],[80.0],[1],[0],[0],[2.193328125915059],['gioia_4'],0.01072905243427158,None,-1.2817915123828045,soglievo,256.96303236068803,sollievo,2,[325.0],[-13.0],[1],[0],[0],[1.3682074630346506],['sollievo_6'],0.00906173990665593,None,,,04,001,healthy,23,f,17,1,aurora,2022-03-28_10h02.25.547,pilot_AIM1,2022.1.1,84.99941520945407,
,,stimoli/02.subtle/JM2_Sadness.wmv,sad,subtle,maschio,8,10,1646,926,,,,,,,,,,,,,,,,,1,0,1,0,,,,,0,5,5,19,-147.69958448959736,vergogna,102.9271587094485,vergogna,3,,,,,,,,,,sad,[-343.0],[-55.0],[1],[0],[0],[1.6991301520722573],['vergogna_3'],0.010783771926526242,None,-0.9856366032321133,soglievo,256.5326489942362,colpa,1,[209.0],[-8.0],[1],[0],[0],[3.144727296930796],['colpa_5'],0.009141099170392408,None,,,04,001,healthy,23,f,17,1,aurora,2022-03-28_10h02.25.547,pilot_AIM1,2022.1.1,84.99941520945407,
,,stimoli/02.subtle/JM1_Disgust.wmv,disgusted,subtle,maschio,7,10,1646,926,,,,,,,,,,,,,,,,,1,0,1,0,,,,,0,6,6,10,-100.14554443389633,tristezza,96.5090669315583,tristezza,3,,,,,,,,,,disgusted,[-273.0],[-95.0],[1],[0],[0],[1.840379721276122],['tristezza_3'],0.010833051469035127,None,0.1125652373213464,soddisfazione,256.49561399758863,neutral,1,[253.0],[1.0],[1],[0],[0],[1.297286201184079],['neutral_5'],0.00895070093747563,None,,,04,001,healthy,23,f,17,1,aurora,2022-03-28_10h02.25.547,pilot_AIM1,2022.1.1,84.99941520945407,
,,stimoli/02.subtle/JF2_Neutral.wmv,neutral,subtle,femmina,6,9,1646,926,,,,,,,,,,,,,,,,,1,0,1,0,,,,,0,7,7,25,135.0,disgusto,1.4142135623730951,neutral,1,,,,,,,,,,neutral,[-257.0],[1.0],[1],[0],[0],[0.9227949564628943],['neutral_1'],0.01081833160583301,None,0.8951737102110744,soddisfazione,256.62423891752707,neutral,1,[256.0],[8.0],[1],[0],[0],[1.1446940172395443],['neutral_5'],0.009154539045766796,None,,,04,001,healthy,23,f,17,1,aurora,2022-03-28_10h02.25.547,pilot_AIM1,2022.1.1,84.99941520945407,
,,stimoli/01.full/M03-Anger-Face Forward.wmv,angry,full,maschio,4,6,720,576,,,,,,,,,,,,,,,,,1,0,1,0,,,,,0,8,8,35,104.59657552549417,rabbia,99.20181449953424,rabbia,3,,,,,,,,,,angry,[-281.0],[96.0],[1],[0],[0],[12.228603318561227],['rabbia_3'],0.010510494462550923,None,0.561705332566547,soddisfazione,256.54434314558563,neutral,1,[254.0],[5.0],[1],[0],[0],[1.8619587210230293],['neutral_5'],0.00890494136228881,None,,,04,001,healthy,23,f,17,1,aurora,2022-03-28_10h02.25.547,pilot_AIM1,2022.1.1,84.99941520945407,
,,stimoli/02.subtle/JF1_Fear.wmv,fear,subtle,femmina,5,10,1646,926,,,,,,,,,,,,,,,,,1,0,1,0,,,,,0,9,9,0,-81.11934084947976,sorpresa,97.16480844420988,sorpresa,3,,,,,,,,,,fear,[-241.0],[-96.0],[1],[0],[0],[4.099134760029301],['sorpresa_3'],0.010842011385875594,None,-2.646825570428574,soglievo,257.00583650960147,colpa,3,[155.0],[-19.0],[1],[0],[0],[2.2743072144289727],['colpa_7'],0.009377256978950754,None,,,04,001,healthy,23,f,17,1,aurora,2022-03-28_10h02.25.547,pilot_AIM1,2022.1.1,84.99941520945407,
,,stimoli/01.full/F03-Joy-Face Forward.wmv,happy,full,femmina,2,6,720,576,,,,,,,,,,,,,,,,,1,0,1,0,,,,,0,10,10,41,35.08347387909274,gioia,102.6498904042279,gioia,3,,,,,,,,,,happy,[-172.0],[59.0],[1],[0],[0],[3.8283574328429495],['gioia_3'],0.01058793374409106,None,0.22424848122371066,soddisfazione,256.5053605677667,neutral,1,[255.0],[2.0],[1],[0],[0],[1.1566164665991892],['neutral_5'],0.009129899274512354,None,,,04,001,healthy,23,f,17,1,aurora,2022-03-28_10h02.25.547,pilot_AIM1,2022.1.1,84.99941520945407,
,,stimoli/01.full/M02-Joy-Face Forward.wmv,happy,full,maschio,3,6,720,576,,,,,,,,,,,,,,,,,1,0,1,0,,,,,0,11,11,42,31.83894713442976,gioia,145.96232390586277,gioia,4,,,,,,,,,,happy,[-132.0],[77.0],[1],[0],[0],[1.428434744125525],['gioia_4'],0.010636253295615461,None,6.34019174590991,soddisfazione,263.7233398848119,euforia,2,[293.0],[61.0],[1],[0],[0],[1.4741773596342682],['euforia_6'],0.00917597884654242,None,,,04,001,healthy,23,f,17,1,aurora,2022-03-28_10h02.25.547,pilot_AIM1,2022.1.1,84.99941520945407,
,,stimoli/01.full/F03-Sadness-Face Forward.wmv,sad,full,femmina,2,6,720,576,,,,,,,,,,,,,,,,,1,0,1,0,,,,,0,12,12,45,-105.05431655960483,tristezza,150.1532550429727,tristezza,4,,,,,,,,,,sad,[-295.0],[-145.0],[1],[0],[0],[1.710971002189126],['tristezza_4'],0.010704412663017138,None,-2.087304972776539,soglievo,256.85599078082646,colpa,2,[183.0],[-16.0],[1],[0],[0],[1.2976945173948025],['colpa_6'],0.009157419018947621,None,,,04,001,healthy,23,f,17,1,aurora,2022-03-28_10h02.25.547,pilot_AIM1,2022.1.1,84.99941520945407,
,,stimoli/02.subtle/JF1_Sadness.wmv,sad,subtle,femmina,5,10,1646,926,,,,,,,,,,,,,,,,,1,0,1,0,,,,,0,13,13,16,-103.03865658302297,tristezza,97.51410154434076,tristezza,3,,,,,,,,,,sad,[-278.0],[-95.0],[1],[0],[0],[2.4758352642486443],['tristezza_3'],0.010921370649384698,None,-1.2902273520604597,soglievo,256.5618833731932,colpa,2,[188.0],[-10.0],[1],[0],[0],[1.7206982719199004],['colpa_6'],0.008909741317438602,None,,,04,001,healthy,23,f,17,1,aurora,2022-03-28_10h02.25.547,pilot_AIM1,2022.1.1,84.99941520945407,
,,stimoli/01.full/F01-Joy-Face Forward.wmv,happy,full,femmina,1,6,720,576,,,,,,,,,,,,,,,,,1,0,1,0,,,,,0,14,14,40,34.135940077912274,gioia,142.56226709757388,gioia,4,,,,,,,,,,happy,[-138.0],[80.0],[1],[0],[0],[4.252223899362434],['gioia_4'],0.01075081223257257,None,-0.112344521736011,soglievo,256.4975633412528,neutral,1,[254.0],[-1.0],[1],[0],[0],[1.2269518138873536],['neutral_5'],0.009122539342570235,None,,,04,001,healthy,23,f,17,1,aurora,2022-03-28_10h02.25.547,pilot_AIM1,2022.1.1,84.99941520945407,
,,stimoli/02.subtle/JM1_Surprise.wmv,surprised,subtle,maschio,7,10,1646,926,,,,,,,,,,,,,,,,,1,0,1,0,,,,,0,15,15,22,-80.15886824036562,sorpresa,99.46356116689167,sorpresa,3,,,,,,,,,,surprised,[-239.0],[-98.0],[1],[0],[0],[1.4872700381340564],['sorpresa_3'],0.01081577162949543,None,0.561705332566547,soddisfazione,256.54434314558563,neutral,1,[254.0],[5.0],[1],[0],[0],[1.0860030418916722],['neutral_5'],0.009460776203695787,None,,,04,001,healthy,23,f,17,1,aurora,2022-03-28_10h02.25.547,pilot_AIM1,2022.1.1,84.99941520945407,
,,stimoli/01.full/M03-Joy-Face Forward.wmv,happy,full,maschio,4,6,720,576,,,,,,,,,,,,,,,,,1,0,1,0,,,,,0,16,16,43,32.18263176720482,gioia,137.05838172107534,gioia,4,,,,,,,,,,happy,[-140.0],[73.0],[1],[0],[0],[2.3345146557039698],['gioia_4'],0.010806811712882336,None,0.335713616182199,soddisfazione,256.51705596314645,neutral,1,[256.0],[3.0],[1],[0],[0],[2.2153023219946135],['neutral_5'],0.009228458359757497,None,,,04,001,healthy,23,f,17,1,aurora,2022-03-28_10h02.25.547,pilot_AIM1,2022.1.1,84.99941520945407,
,,stimoli/01.full/M03-Disgust-Face Forward.wmv,disgusted,full,maschio,4,6,720,576,,,,,,,,,,,,,,,,,1,0,1,0,,,,,0,17,17,39,144.65989307844234,disgusto,134.84806264830058,disgusto,4,,,,,,,,,,disgusted,[-366.0],[78.0],[1],[0],[0],[1.910982906078516],['disgusto_4'],0.010777051988952735,None,0.2255727696340518,soddisfazione,256.4995126701024,neutral,1,[252.0],[2.0],[1],[0],[0],[1.3681757833285246],['neutral_5'],0.00919133870411315,None,,,04,001,healthy,23,f,17,1,aurora,2022-03-28_10h02.25.547,pilot_AIM1,2022.1.1,84.99941520945407,
,,stimoli/01.full/F01-Surprise-Face Forward.wmv,surprised,full,femmina,1,6,720,576,,,,,,,,,,,,,,,,,1,0,1,0,,,,,0,18,18,48,-80.46987216740006,sorpresa,138.91724155050014,sorpresa,4,,,,,,,,,,surprised,[-233.0],[-137.0],[1],[0],[0],[2.1696713854496466],['sorpresa_4'],0.010656413108335983,None,7.157813013615805,soddisfazione,261.9656466027559,disgusto,3,[174.0],[54.0],[1],[0],[0],[2.767214640248085],['disgusto_7'],0.007914230555570612,None,,,04,001,healthy,23,f,17,1,aurora,2022-03-28_10h02.25.547,pilot_AIM1,2022.1.1,84.99941520945407,
,,stimoli/02.subtle/JM2_Surprise.wmv,surprised,subtle,maschio,8,10,1646,926,,,,,,,,,,,,,,,,,1,0,1,0,,,,,0,19,19,23,8.297144969836873,soddisfazione,97.01546268507923,soddisfazione,3,,,,,,,,,,surprised,[-160.0],[14.0],[1],[0],[0],[16.946550576010623],['soddisfazione_3'],0.010766492086986545,None,-7.501514526665429,soglievo,265.64073482807567,sorpresa,2,[268.0],[-69.0],[1],[0],[0],[2.073991953354607],['sorpresa_6'],0.00907325980006135,None,,,04,001,healthy,23,f,17,1,aurora,2022-03-28_10h02.25.547,pilot_AIM1,2022.1.1,84.99941520945407,
,,stimoli/02.subtle/JF2_Surprise.wmv,surprised,subtle,femmina,6,10,1646,926,,,,,,,,,,,,,,,,,1,0,1,0,,,,,0,20,20,21,126.5110561194953,disprezzo,95.80187889597991,disprezzo,3,,,,,,,,,,surprised,[-313.0],[77.0],[1],[0],[0],[4.875699073512578],['disprezzo_3'],0.010723612484753176,None,4.81620661131167,soddisfazione,259.1814036538887,disgusto,2,[195.0],[38.0],[1],[0],[0],[2.9917533565287613],['disgusto_6'],0.009114219419871006,None,,,04,001,healthy,23,f,17,1,aurora,2022-03-28_10h02.25.547,pilot_AIM1,2022.1.1,84.99941520945407,
,,stimoli/01.full/F01-Disgust-Face Forward.wmv,disgusted,full,femmina,1,6,720,576,,,,,,,,,,,,,,,,,1,0,1,0,,,,,0,21,21,36,145.99250758026776,disgusto,100.12492197250393,disgusto,3,,,,,,,,,,disgusted,[-339.0],[56.0],[1],[0],[0],[1.9815950507979778],['disgusto_3'],0.010795931813845527,None,6.632514615138462,soddisfazione,262.2556005121721,disprezzo,2,[217.0],[55.0],[1],[0],[0],[2.638869911287202],['disprezzo_6'],0.009096939580103935,None,,,04,001,healthy,23,f,17,1,aurora,2022-03-28_10h02.25.547,pilot_AIM1,2022.1.1,84.99941520945407,
,,stimoli/02.subtle/JM2_Fear.wmv,fear,subtle,maschio,8,10,1646,926,,,,,,,,,,,,,,,,,1,0,1,0,,,,,0,22,22,3,-125.66500153686178,paura,104.62313319720452,paura,3,,,,,,,,,,fear,[-317.0],[-85.0],[1],[0],[0],[3.1814523961215855],['paura_3'],0.010681372876888418,None,-7.594643368591445,soglievo,265.90411805761863,sorpresa,2,[269.0],[-70.0],[1],[0],[0],[3.6977324050433253],['sorpresa_6'],0.0091487790989504,None,,,04,001,healthy,23,f,17,1,aurora,2022-03-28_10h02.25.547,pilot_AIM1,2022.1.1,84.99941520945407,
,,stimoli/02.subtle/JM2_Happiness.wmv,happy,subtle,maschio,8,10,1646,926,,,,,,,,,,,,,,,,,1,0,1,0,,,,,0,23,23,15,32.78428086586915,gioia,70.178344238091,gioia,2,,,,,,,,,,happy,[-197.0],[38.0],[1],[0],[0],[2.5462016512487935],['gioia_2'],0.010739292339394524,None,-1.3851202815659802,soglievo,257.0116728866609,sollievo,2,[323.0],[-14.0],[1],[0],[0],[2.0740457128558774],['sollievo_6'],0.00919389868045073,None,,,04,001,healthy,23,f,17,1,aurora,2022-03-28_10h02.25.547,pilot_AIM1,2022.1.1,84.99941520945407,
,,stimoli/02.subtle/JF2_Fear.wmv,fear,subtle,femmina,6,10,1646,926,,,,,,,,,,,,,,,,,1,0,1,0,,,,,0,24,24,1,-79.59228868750995,sorpresa,99.6393496566492,sorpresa,3,,,,,,,,,,fear,[-238.0],[-98.0],[1],[0],[0],[1.4874933960611543],['sorpresa_3'],0.010893850904949431,None,-6.618646246451301,soglievo,262.25750704221986,paura,2,[218.0],[-55.0],[1],[0],[0],[3.1917009410151422],['paura_6'],0.009055659963451035,None,,,04,001,healthy,23,f,17,1,aurora,2022-03-28_10h02.25.547,pilot_AIM1,2022.1.1,84.99941520945407,
,,stimoli/02.subtle/JM1_Sadness.wmv,sad,subtle,maschio,7,10,1646,926,,,,,,,,,,,,,,,,,1,0,1,0,,,,,0,25,25,18,-168.4762782961027,colpa,105.11898020814318,colpa,3,,,,,,,,,,sad,[-359.0],[-21.0],[1],[0],[0],[1.9109384264913842],['colpa_3'],0.010788251885287536,None,-7.904020970247175,soglievo,265.5899094468764,tristezza,2,[241.0],[-69.0],[1],[0],[0],[2.0740988323630063],['tristezza_6'],0.009222378416097854,None,,,04,001,healthy,23,f,17,1,aurora,2022-03-28_10h02.25.547,pilot_AIM1,2022.1.1,84.99941520945407,
,,stimoli/01.full/F01-Neutral-Face Forward.wmv,neutral,full,femmina,1,6,720,576,,,,,,,,,,,,,,,,,1,0,1,0,,,,,0,26,26,52,-168.6900675259798,colpa,5.0990195135927845,neutral,1,,,,,,,,,,neutral,[-261.0],[-1.0],[1],[0],[0],[1.2283950004944018],['neutral_1'],0.010607453562670344,None,0.44414443311192825,soddisfazione,256.5384961365448,neutral,1,[260.0],[4.0],[1],[0],[0],[1.2269367740268535],['neutral_5'],0.0091599789952852,None,,,04,001,healthy,23,f,17,1,aurora,2022-03-28_10h02.25.547,pilot_AIM1,2022.1.1,84.99941520945407,
,,stimoli/01.full/M02-Surprise-Face Forward.wmv,surprised,full,maschio,3,6,720,576,,,,,,,,,,,,,,,,,1,0,1,0,,,,,0,27,27,50,-78.46537934635528,sorpresa,100.0199980003999,sorpresa,3,,,,,,,,,,surprised,[-236.0],[-98.0],[1],[0],[0],[2.4166786932216837],['sorpresa_3'],0.010584093779471004,None,7.275004957889255,soddisfazione,263.3438816452738,disprezzo,2,[214.0],[60.0],[1],[0],[0],[2.6389550304975273],['disprezzo_6'],0.009091179633514912,None,,,04,001,healthy,23,f,17,1,aurora,2022-03-28_10h02.25.547,pilot_AIM1,2022.1.1,84.99941520945407,
,,stimoli/02.subtle/JM2_Neutral.wmv,neutral,subtle,maschio,8,10,1646,926,,,,,,,,,,,,,,,,,1,0,1,0,,,,,0,28,28,27,-161.565051177078,colpa,3.1622776601683795,neutral,1,,,,,,,,,,neutral,[-259.0],[-1.0],[1],[0],[0],[1.0639523665220167],['neutral_1'],0.01081129167096151,None,0.22601768172841377,soddisfazione,256.4975633412528,neutral,1,[251.0],[2.0],[1],[0],[0],[1.3682017030880615],['neutral_5'],0.009143979143573233,None,,,04,001,healthy,23,f,17,1,aurora,2022-03-28_10h02.25.547,pilot_AIM1,2022.1.1,84.99941520945407,
,,stimoli/02.subtle/JF1_Disgust.wmv,disgusted,subtle,femmina,5,10,1646,926,,,,,,,,,,,,,,,,,1,0,1,0,,,,,0,29,29,8,-168.34970056246235,colpa,99.04039579888602,colpa,3,,,,,,,,,,disgusted,[-353.0],[-20.0],[1],[0],[0],[1.5583125788591587],['colpa_3'],0.010849691314888332,None,-11.176583344319008,soglievo,274.5541840875859,tristezza,3,[240.0],[-98.0],[1],[0],[0],[1.9327094244565615],['tristezza_7'],0.008869421691542811,None,,,04,001,healthy,23,f,17,1,aurora,2022-03-28_10h02.25.547,pilot_AIM1,2022.1.1,84.99941520945407,
,,stimoli/01.full/M03-Neutral-Face Forward.wmv,neutral,full,maschio,4,6,720,576,,,,,,,,,,,,,,,,,1,0,1,0,,,,,0,30,30,55,-135.0,vergogna,2.8284271247461903,neutral,1,,,,,,,,,,neutral,[-258.0],[-2.0],[1],[0],[0],[1.0638966870387776],['neutral_1'],0.010634013316121127,None,0.11147024751704282,soddisfazione,256.5053605677667,neutral,1,[258.0],[1.0],[1],[0],[0],[0.9327711838834603],['neutral_5'],0.009130859265269464,None,,,04,001,healthy,23,f,17,1,aurora,2022-03-28_10h02.25.547,pilot_AIM1,2022.1.1,84.99941520945407,
,,stimoli/01.full/M02-Disgust-Face Forward.wmv,disgusted,full,maschio,3,6,720,576,,,,,,,,,,,,,,,,,1,0,1,0,,,,,0,31,31,38,147.69958448959736,disgusto,102.9271587094485,disgusto,3,,,,,,,,,,disgusted,[-343.0],[55.0],[1],[0],[0],[1.6286997656661697],['disgusto_3'],0.01086345118733334,None,4.58797812407248,soddisfazione,259.39737855267543,disprezzo,1,[230.0],[39.0],[1],[0],[0],[3.3331421884404335],['disprezzo_5'],0.009326377451088774,None,,,04,001,healthy,23,f,17,1,aurora,2022-03-28_10h02.25.547,pilot_AIM1,2022.1.1,84.99941520945407,
,,stimoli/01.full/F01-Sadness-Face Forward.wmv,sad,full,femmina,1,6,720,576,,,,,,,,,,,,,,,,,1,0,1,0,,,,,0,32,32,44,-101.63363399894044,tristezza,104.1393297462587,tristezza,3,,,,,,,,,,sad,[-277.0],[-102.0],[1],[0],[0],[1.346393905464538],['tristezza_3'],0.010790491864327123,None,0.0,soddisfazione,256.5014619841376,neutral,1,[257.0],[0.0],[1],[0],[0],[1.226833734982847],['neutral_5'],0.009003500447306578,None,,,04,001,healthy,23,f,17,1,aurora,2022-03-28_10h02.25.547,pilot_AIM1,2022.1.1,84.99941520945407,
,,stimoli/02.subtle/JM2_Anger.wmv,angry,subtle,maschio,8,10,1646,926,,,,,,,,,,,,,,,,,1,0,1,0,,,,,0,33,33,7,102.65255650055798,rabbia,100.43903623591775,rabbia,3,,,,,,,,,,angry,[-278.0],[98.0],[1],[0],[0],[1.7699387749680682],['rabbia_3'],0.010875611074197877,None,0.0,soddisfazione,256.49366463910957,neutral,1,[253.0],[0.0],[1],[0],[0],[0.9445598744844119],['neutral_5'],0.009138539193827455,None,,,04,001,healthy,23,f,17,1,aurora,2022-03-28_10h02.25.547,pilot_AIM1,2022.1.1,84.99941520945407,
,,stimoli/01.full/M02-Anger-Face Forward.wmv,angry,full,maschio,3,6,720,576,,,,,,,,,,,,,,,,,1,0,1,0,,,,,0,34,34,34,103.62699485989154,rabbia,67.91170738539859,rabbia,2,,,,,,,,,,angry,[-272.0],[66.0],[1],[0],[0],[1.4168412517130946],['rabbia_2'],0.01075881215820118,None,0.0,soddisfazione,256.5014619841376,neutral,1,[257.0],[0.0],[1],[0],[0],[0.8740373289335821],['neutral_5'],0.009087979663490842,None,,,04,001,healthy,23,f,17,1,aurora,2022-03-28_10h02.25.547,pilot_AIM1,2022.1.1,84.99941520945407,
,,stimoli/02.subtle/JM1_Fear.wmv,fear,subtle,maschio,7,10,1646,926,,,,,,,,,,,,,,,,,1,0,1,0,,,,,0,35,35,2,-125.13419305691563,paura,66.03029607687671,paura,2,,,,,,,,,,fear,[-294.0],[-54.0],[1],[0],[0],[3.1814987956913683],['paura_2'],0.010690972787870123,None,-7.2590413196862045,soglievo,265.1320425750158,sorpresa,2,[270.0],[-67.0],[1],[0],[0],[3.2741273760977947],['sorpresa_6'],0.00917885881995062,None,,,04,001,healthy,23,f,17,1,aurora,2022-03-28_10h02.25.547,pilot_AIM1,2022.1.1,84.99941520945407,
,,stimoli/01.full/M02-Neutral-Face Forward.wmv,neutral,full,maschio,3,6,720,576,,,,,,,,,,,,,,,,,1,0,1,0,,,,,0,36,36,54,-69.44395478041653,sorpresa,8.54400374531753,neutral,1,,,,,,,,,,neutral,[-253.0],[-8.0],[1],[0],[0],[0.7931715193683431],['neutral_1'],0.010687772817391306,None,0.4458725519324895,soddisfazione,256.5345980564805,neutral,1,[258.0],[4.0],[1],[0],[0],[1.2269089342851203],['neutral_5'],0.009064619880291502,None,,,04,001,healthy,23,f,17,1,aurora,2022-03-28_10h02.25.547,pilot_AIM1,2022.1.1,84.99941520945407,
,,stimoli/01.full/F01-Fear-Face Forward.wmv,fear,full,femmina,1,6,720,576,,,,,,,,,,,,,,,,,1,0,1,0,,,,,0,37,37,28,-127.10829757176431,paura,144.20124826089406,paura,4,,,,,,,,,,fear,[-343.0],[-115.0],[1],[0],[0],[1.7106087655508873],['paura_4'],0.010560733996271665,None,-6.544518182375347,soglievo,263.4444913069924,sorpresa,2,[267.0],[-60.0],[1],[0],[0],[1.15639246867795],['sorpresa_6'],0.00916509894796036,None,,,04,001,healthy,23,f,17,1,aurora,2022-03-28_10h02.25.547,pilot_AIM1,2022.1.1,84.99941520945407,
,,stimoli/02.subtle/JF1_Anger.wmv,angry,subtle,femmina,5,10,1646,926,,,,,,,,,,,,,,,,,1,0,1,0,,,,,0,38,38,4,103.62699485989154,rabbia,67.91170738539859,rabbia,2,,,,,,,,,,angry,[-272.0],[66.0],[1],[0],[0],[1.558011141656607],['rabbia_2'],0.010831451484136778,None,0.0,soddisfazione,256.49366463910957,neutral,1,[253.0],[0.0],[1],[0],[0],[0.8742376470745512],['neutral_5'],0.009272937946661841,None,,,04,001,healthy,23,f,17,1,aurora,2022-03-28_10h02.25.547,pilot_AIM1,2022.1.1,84.99941520945407,
,,stimoli/02.subtle/JM1_Neutral.wmv,neutral,subtle,maschio,7,10,1646,926,,,,,,,,,,,,,,,,,1,0,1,0,,,,,0,39,39,26,0.0,soddisfazione,0.0,neutral,1,,,,,,,,,,neutral,[-256.0],[0.0],[1],[0],[0],[0.7814049085623083],['neutral_1'],0.010680412885449186,None,0.4484900923964887,soddisfazione,256.5287508253217,neutral,1,[255.0],[4.0],[1],[0],[0],[1.1564065485472383],['neutral_5'],0.009042860082445259,None,,,04,001,healthy,23,f,17,1,aurora,2022-03-28_10h02.25.547,pilot_AIM1,2022.1.1,84.99941520945407,
,,stimoli/02.subtle/JM1_Anger.wmv,angry,subtle,maschio,7,10,1646,926,,,,,,,,,,,,,,,,,1,0,1,0,,,,,0,40,40,6,167.34744349944202,invidia,100.43903623591775,invidia,3,,,,,,,,,,angry,[-354.0],[22.0],[1],[0],[0],[1.7689551040966762],['invidia_3'],0.009864740454759158,None,-0.1125652373213464,soglievo,256.49561399758863,neutral,1,[253.0],[-1.0],[1],[0],[0],[1.2974173999664345],['neutral_5'],0.009015340337100497,None,,,04,001,healthy,23,f,17,1,aurora,2022-03-28_10h02.25.547,pilot_AIM1,2022.1.1,84.99941520945407,
,,stimoli/01.full/F03-Disgust-Face Forward.wmv,disgusted,full,femmina,2,6,720,576,,,,,,,,,,,,,,,,,1,0,1,0,,,,,0,41,41,37,147.68752137387,disgusto,138.43771162512041,disgusto,4,,,,,,,,,,disgusted,[-373.0],[74.0],[1],[0],[0],[1.5579993017663583],['disgusto_4'],0.010790811860715621,None,0.5584207146851583,soddisfazione,256.55019002136794,neutral,1,[257.0],[5.0],[1],[0],[0],[0.8738107710360055],['neutral_5'],0.00897758068776966,None,,,04,001,healthy,23,f,17,1,aurora,2022-03-28_10h02.25.547,pilot_AIM1,2022.1.1,84.99941520945407,
,,stimoli/01.full/M03-Fear-Face Forward.wmv,fear,full,maschio,4,6,720,576,,,,,,,,,,,,,,,,,1,0,1,0,,,,,0,42,42,31,-123.45950225339067,paura,137.84411485442533,paura,4,,,,,,,,,,fear,[-332.0],[-115.0],[1],[0],[0],[1.075589058533751],['paura_4'],0.010580253815078322,None,-7.165308732915919,soglievo,264.87921775783013,sorpresa,2,[269.0],[-66.0],[1],[0],[0],[1.6502054860930002],['sorpresa_6'],0.008879981593509001,None,,,04,001,healthy,23,f,17,1,aurora,2022-03-28_10h02.25.547,pilot_AIM1,2022.1.1,84.99941520945407,
,,stimoli/02.subtle/JM2_Disgust.wmv,disgusted,subtle,maschio,8,10,1646,926,,,,,,,,,,,,,,,,,1,0,1,0,,,,,0,43,43,11,-147.65255650055798,vergogna,71.02112361825881,vergogna,2,,,,,,,,,,disgusted,[-316.0],[-38.0],[1],[0],[0],[3.1813439171287428],['vergogna_2'],0.010625693393649271,None,-8.01709307365533,soglievo,265.85146228674387,tristezza,2,[241.0],[-70.0],[1],[0],[0],[1.368388261356813],['tristezza_6'],0.009211498517288419,None,,,04,001,healthy,23,f,17,1,aurora,2022-03-28_10h02.25.547,pilot_AIM1,2022.1.1,84.99941520945407,
,,stimoli/01.full/M02-Fear-Face Forward.wmv,fear,full,maschio,3,6,720,576,,,,,,,,,,,,,,,,,1,0,1,0,,,,,0,44,44,30,-124.42647658143909,paura,107.89810007595129,paura,3,,,,,,,,,,fear,[-317.0],[-89.0],[1],[0],[0],[3.111028409656228],['paura_3'],0.010718172534780024,None,-7.407989440835526,soglievo,265.3808583903519,sorpresa,2,[267.0],[-68.0],[1],[0],[0],[1.991626317707869],['sorpresa_6'],0.009045100061484845,None,,,04,001,healthy,23,f,17,1,aurora,2022-03-28_10h02.25.547,pilot_AIM1,2022.1.1,84.99941520945407,
,,stimoli/01.full/M03-Sadness-Face Forward.wmv,sad,full,maschio,4,6,720,576,,,,,,,,,,,,,,,,,1,0,1,0,,,,,0,45,45,47,-101.4695303328669,tristezza,70.40596565632774,tristezza,2,,,,,,,,,,sad,[-270.0],[-69.0],[1],[0],[0],[3.122467983497245],['tristezza_2'],0.010613213509714114,None,0.0,soddisfazione,256.4995126701024,neutral,1,[256.0],[0.0],[1],[0],[0],[0.6623576933207005],['neutral_5'],0.009182378787500056,None,,,04,001,healthy,23,f,17,1,aurora,2022-03-28_10h02.25.547,pilot_AIM1,2022.1.1,84.99941520945407,
,,stimoli/01.full/F03-Neutral-Face Forward.wmv,neutral,full,femmina,2,6,720,576,,,,,,,,,,,,,,,,,1,0,1,0,,,,,0,46,46,53,26.56505117707799,gioia,2.23606797749979,neutral,1,,,,,,,,,,neutral,[-254.0],[1.0],[1],[0],[0],[0.6519667497486807],['neutral_1'],0.010586013761439972,None,0.0,soddisfazione,256.4995126701024,neutral,1,[256.0],[0.0],[1],[0],[0],[0.5915823501159139],['neutral_5'],0.00899742050387431,None,,,04,001,healthy,23,f,17,1,aurora,2022-03-28_10h02.25.547,pilot_AIM1,2022.1.1,84.99941520945407,
,,stimoli/01.full/F03-Fear-Face Forward.wmv,fear,full,femmina,2,6,720,576,,,,,,,,,,,,,,,,,1,0,1,0,,,,,0,47,47,29,-78.92979742206063,sorpresa,140.61649974309557,sorpresa,4,,,,,,,,,,fear,[-229.0],[-138.0],[1],[0],[0],[2.557919302508708],['sorpresa_4'],0.0106666530136863,None,-9.786596238461595,soglievo,268.2890232566364,paura,3,[202.0],[-79.0],[1],[0],[0],[2.3564354122790974],['paura_7'],0.009092459621570015,None,,,04,001,healthy,23,f,17,1,aurora,2022-03-28_10h02.25.547,pilot_AIM1,2022.1.1,84.99941520945407,
,,stimoli/02.subtle/JF2_Anger.wmv,angry,subtle,femmina,6,9,1646,926,,,,,,,,,,,,,,,,,1,0,1,0,,,,,0,48,48,5,102.36249241571431,rabbia,74.73285756613352,rabbia,2,,,,,,,,,,angry,[-272.0],[73.0],[1],[0],[0],[1.4169391708041985],['rabbia_2'],0.010888730952501646,None,2.2176351081915677,soddisfazione,256.92022108039686,invidia,2,[183.0],[17.0],[1],[0],[0],[1.7916780932273468],['invidia_6'],0.009148139105036535,None,,,04,001,healthy,23,f,17,1,aurora,2022-03-28_10h02.25.547,pilot_AIM1,2022.1.1,84.99941520945407,
,,stimoli/01.full/M03-Surprise-Face Forward.wmv,surprised,full,maschio,4,6,720,576,,,,,,,,,,,,,,,,,1,0,1,0,,,,,0,49,49,51,-79.59228868750995,sorpresa,99.6393496566492,sorpresa,3,,,,,,,,,,surprised,[-238.0],[-98.0],[1],[0],[0],[2.969836439917799],['sorpresa_3'],0.01080553172459986,None,-0.22381050036853808,soglievo,256.50730983736116,neutral,1,[256.0],[-2.0],[1],[0],[0],[0.8625427156034675],['neutral_5'],0.009016940322453593,None,,,04,001,healthy,23,f,17,1,aurora,2022-03-28_10h02.25.547,pilot_AIM1,2022.1.1,84.99941520945407,
,,stimoli/01.full/F01-Anger-Face Forward.wmv,angry,full,femmina,1,6,720,576,,,,,,,,,,,,,,,,,1,0,1,0,,,,,0,50,50,32,103.64291477599008,rabbia,105.99056561788883,rabbia,3,,,,,,,,,,angry,[-281.0],[103.0],[1],[0],[0],[2.20487329877551],['rabbia_3'],0.010665693022019695,None,-0.1116875378979654,soglievo,256.50341128335896,neutral,1,[257.0],[-1.0],[1],[0],[0],[1.2271620519359203],['neutral_5'],0.009220138436830894,None,,,04,001,healthy,23,f,17,1,aurora,2022-03-28_10h02.25.547,pilot_AIM1,2022.1.1,84.99941520945407,
,,stimoli/01.full/F03-Surprise-Face Forward.wmv,surprised,full,femmina,2,6,720,576,,,,,,,,,,,,,,,,,1,0,1,0,,,,,0,51,51,49,-76.40905155215867,sorpresa,93.62157870918435,sorpresa,3,,,,,,,,,,surprised,[-234.0],[-91.0],[1],[0],[0],[1.911114104861099],['sorpresa_3'],0.010957530314044561,None,0.0,soddisfazione,256.4975633412528,neutral,1,[255.0],[0.0],[1],[0],[0],[0.5209580455093601],['neutral_5'],0.009021740278058132,None,,,04,001,healthy,23,f,17,1,aurora,2022-03-28_10h02.25.547,pilot_AIM1,2022.1.1,84.99941520945407,
,,stimoli/02.subtle/JF1_Surprise.wmv,surprised,subtle,femmina,5,10,1646,926,,,,,,,,,,,,,,,,,1,0,1,0,,,,,0,52,52,20,-55.23480276342322,interesse,103.46980235798269,interesse,3,,,,,,,,,,surprised,[-197.0],[-85.0],[1],[0],[0],[2.6872368224421734],['interesse_3'],0.01072905243427158,None,1.1914215815001452,soddisfazione,256.9065978132909,soddisfazione,2,[321.0],[12.0],[1],[0],[0],[7.227335170329752],['soddisfazione_6'],0.009176618840683659,None,,,04,001,healthy,23,f,17,1,aurora,2022-03-28_10h02.25.547,pilot_AIM1,2022.1.1,84.99941520945407,
,,stimoli/01.full/F03-Anger-Face Forward.wmv,angry,full,femmina,2,6,720,576,,,,,,,,,,,,,,,,,1,0,1,0,,,,,0,53,53,33,100.61965527615514,rabbia,97.67292357659824,rabbia,3,,,,,,,,,,angry,[-274.0],[96.0],[1],[0],[0],[2.9815608111157417],['rabbia_3'],0.010650013167378347,None,-7.790886873006168,soglievo,265.33186766764373,tristezza,2,[241.0],[-68.0],[1],[0],[0],[1.438513370595956],['tristezza_6'],0.00901246036437442,None,,,04,001,healthy,23,f,17,1,aurora,2022-03-28_10h02.25.547,pilot_AIM1,2022.1.1,84.99941520945407,
,,stimoli/02.subtle/JF2_Sadness.wmv,sad,subtle,femmina,6,8,1646,926,,,,,,,,,,,,,,,,,1,0,1,0,,,,,0,54,54,17,-103.05524722379661,tristezza,70.83078426785913,tristezza,2,,,,,,,,,,sad,[-272.0],[-69.0],[1],[0],[0],[5.087575827296405],['tristezza_2'],0.010897690869569487,None,0.0,soddisfazione,256.4995126701024,neutral,1,[256.0],[0.0],[1],[0],[0],[0.9446840333321234],['neutral_5'],0.009178218826036755,None,,,04,001,healthy,23,f,17,1,aurora,2022-03-28_10h02.25.547,pilot_AIM1,2022.1.1,84.99941520945407,
,,stimoli/02.subtle/JF2_Happiness.wmv,happy,subtle,femmina,6,9,1646,926,,,,,,,,,,,,,,,,,1,0,1,0,,,,,0,55,55,13,11.546690545927323,soddisfazione,94.92101980067429,soddisfazione,3,,,,,,,,,,happy,[-163.0],[19.0],[1],[0],[0],[3.1818056728434385],['soddisfazione_3'],0.010926170605216612,None,7.687377990511994,soddisfazione,266.17099766879187,orgoglio,2,[270.0],[71.0],[1],[0],[0],[2.144612417996541],['orgoglio_6'],0.008991980554128531,None,,,04,001,healthy,23,f,17,1,aurora,2022-03-28_10h02.25.547,pilot_AIM1,2022.1.1,84.99941520945407,
