emotion_practice,emotion_comp,file,file_emotion,file_emotion_level,file_gender,file_id,file_duration,size_w,size_h,practice.thisRepN,practice.thisTrialN,practice.thisN,practice.thisIndex,istr_loop_practice.thisRepN,istr_loop_practice.thisTrialN,istr_loop_practice.thisN,istr_loop_practice.thisIndex,loop_emotion_identication.thisRepN,loop_emotion_identication.thisTrialN,loop_emotion_identication.thisN,loop_emotion_identication.thisIndex,loop_practice.thisRepN,loop_practice.thisTrialN,loop_practice.thisN,loop_practice.thisIndex,random_by_pt_num.thisRepN,random_by_pt_num.thisTrialN,random_by_pt_num.thisN,random_by_pt_num.thisIndex,loop_itr_exp.thisRepN,loop_itr_exp.thisTrialN,loop_itr_exp.thisN,loop_itr_exp.thisIndex,loop_exp.thisRepN,loop_exp.thisTrialN,loop_exp.thisN,loop_exp.thisIndex,wheelresp_angle,wheelresp_cake,wheelresp_norm,wheelresp_emotion,wheelresp_level,Wheelresp.x,Wheelresp.y,Wheelresp.leftButton,Wheelresp.midButton,Wheelresp.rightButton,Wheelresp.time,Wheelresp.clicked_name,Wheelresp.started,Wheelresp.stopped,file_emotion,wheelresp.x,wheelresp.y,wheelresp.leftButton,wheelresp.midButton,wheelresp.rightButton,wheelresp.time,wheelresp.clicked_name,wheelresp.started,wheelresp.stopped,compound_angle,compound_cake,compound_norm,compound_emotion,compound_level,compound.x,compound.y,compound.leftButton,compound.midButton,compound.rightButton,compound.time,compound.clicked_name,compound.started,compound.stopped,kb_end_training.keys,kb_end_training.rt,participant,session,group,age,gender,education,practice,experimenter,date,expName,psychopyVersion,frameRate,
,,,,,,,,,,0,0,0,0,0,0,0,0,,,,,,,,,,,,,,,,,,,,,,,,,,,,,,,,,,,,,,,,,,,,,,,,,,,,,,,,,,,,,03,001,healthy,24,f,18,1,benedetta,2022-03-16_09h49.28.323,pilot_AIM1,2022.1.1,85.0016864231905,
DISPREZZO,INVIDIA,,,,,,,,,0,0,0,0,,,,,0,0,0,5,,,,,,,,,,,,,,,,,122.70230712633999,disprezzo,209.15305400591214,Disprezzo,4,[-113.0],[176.0],[1],[0],[0],[2.0877265066228574],['Disprezzo_4'],0.011182044013139603,None,,,,,,,,,,,,,,,,,,,,,,,,,,,03,001,healthy,24,f,18,1,benedetta,2022-03-16_09h49.28.323,pilot_AIM1,2022.1.1,85.0016864231905,
VERGOGNA,TRISTEZZA,,,,,,,,,0,0,0,0,,,,,0,1,1,9,,,,,,,,,,,,,,,,,-147.28395544110717,vergogna,179.47144619688115,Vergogna,4,[-151.0],[-97.0],[1],[0],[0],[2.135018379088251],['Vergogna_4'],0.011164764118348103,None,,,,,,,,,,,,,,,,,,,,,,,,,,,03,001,healthy,24,f,18,1,benedetta,2022-03-16_09h49.28.323,pilot_AIM1,2022.1.1,85.0016864231905,
SODDISFAZIONE,EUFORIA,,,,,,,,,0,0,0,0,,,,,0,2,2,0,,,,,,,,,,,,,,,,,7.594643368591445,soddisfazione,211.85844330590177,Soddisfazione,4,[210.0],[28.0],[1],[0],[0],[4.605620957824613],['Soddisfazione_4'],0.011170204085146906,None,,,,,,,,,,,,,,,,,,,,,,,,,,,03,001,healthy,24,f,18,1,benedetta,2022-03-16_09h49.28.323,pilot_AIM1,2022.1.1,85.0016864231905,
EUFORIA,GIOIA,,,,,,,,,0,0,0,0,,,,,0,3,3,1,,,,,,,,,,,,,,,,,62.07396602994594,euforia,207.1183236703117,Euforia,4,[97.0],[183.0],[1],[0],[0],[1.71119727592054],['Euforia_4'],0.011195163933280128,None,,,,,,,,,,,,,,,,,,,,,,,,,,,03,001,healthy,24,f,18,1,benedetta,2022-03-16_09h49.28.323,pilot_AIM1,2022.1.1,85.0016864231905,
PAURA,NEUTRO,,,,,,,,,0,0,0,0,,,,,0,4,4,10,,,,,,,,,,,,,,,,,-123.76555599285793,paura,210.50890717496966,Paura,4,[-117.0],[-175.0],[1],[0],[0],[4.393875045239838],['Paura_4'],0.01118236401134709,None,,,,,,,,,,,,,,,,,,,,,,,,,,,03,001,healthy,24,f,18,1,benedetta,2022-03-16_09h49.28.323,pilot_AIM1,2022.1.1,85.0016864231905,
INVIDIA,NEUTRO,,,,,,,,,0,0,0,0,,,,,0,5,5,7,,,,,,,,,,,,,,,,,171.15232157947543,invidia,214.55302374937528,Invidia,4,[-212.0],[33.0],[1],[0],[0],[5.523284818428465],['Invidia_4'],0.011225883746647014,None,,,,,,,,,,,,,,,,,,,,,,,,,,,03,001,healthy,24,f,18,1,benedetta,2022-03-16_09h49.28.323,pilot_AIM1,2022.1.1,85.0016864231905,
TRISTEZZA,NEUTRO,,,,,,,,,0,0,0,0,,,,,0,6,6,11,,,,,,,,,,,,,,,,,-98.70737027152042,tristezza,224.58851261807672,Tristezza,4,[-34.0],[-222.0],[1],[0],[0],[2.3463732540506044],['Tristezza_4'],0.011184923995642748,None,,,,,,,,,,,,,,,,,,,,,,,,,,,03,001,healthy,24,f,18,1,benedetta,2022-03-16_09h49.28.323,pilot_AIM1,2022.1.1,85.0016864231905,
SORPRESA,GIOIA,,,,,,,,,0,0,0,0,,,,,0,7,7,12,,,,,,,,,,,,,,,,,-81.2538377374448,sorpresa,184.14125013152267,Sorpresa,4,[28.0],[-182.0],[1],[0],[0],[3.7112561555625234],['Sorpresa_4'],0.01108444460624014,None,,,,,,,,,,,,,,,,,,,,,,,,,,,03,001,healthy,24,f,18,1,benedetta,2022-03-16_09h49.28.323,pilot_AIM1,2022.1.1,85.0016864231905,
GIOIA,SODDISFAZIONE,,,,,,,,,0,0,0,0,,,,,0,8,8,2,,,,,,,,,,,,,,,,,30.196019843729506,gioia,204.78769494283586,Gioia,4,[177.0],[103.0],[1],[0],[0],[1.5702112531155308],['Gioia_4'],0.011169564088959305,None,,,,,,,,,,,,,,,,,,,,,,,,,,,03,001,healthy,24,f,18,1,benedetta,2022-03-16_09h49.28.323,pilot_AIM1,2022.1.1,85.0016864231905,
SOLLIEVO,GIOIA,,,,,,,,,0,0,0,0,,,,,0,9,9,15,,,,,,,,,,,,,,,,,-97.92325928337866,tristezza,195.86985475054604,Tristezza,4,[-27.0],[-194.0],[1],[0],[0],[2.5113930507302484],['Tristezza_4'],0.011206363865085223,None,,,,,,,,,,,,,,,,,,,,,,,,,,,03,001,healthy,24,f,18,1,benedetta,2022-03-16_09h49.28.323,pilot_AIM1,2022.1.1,85.0016864231905,
ORGOGLIO,NEUTRO,,,,,,,,,0,0,0,0,,,,,0,10,10,3,,,,,,,,,,,,,,,,,71.47510497229699,orgoglio,201.43733516902967,Orgoglio,4,[64.0],[191.0],[1],[0],[0],[1.9937347580928417],['Orgoglio_4'],0.011182364011119716,None,,,,,,,,,,,,,,,,,,,,,,,,,,,03,001,healthy,24,f,18,1,benedetta,2022-03-16_09h49.28.323,pilot_AIM1,2022.1.1,85.0016864231905,
INTERESSE,SORPRESA,,,,,,,,,0,0,0,0,,,,,0,11,11,13,,,,,,,,,,,,,,,,,-54.891619726822185,interesse,201.6953147695801,Interesse,4,[116.0],[-165.0],[1],[0],[0],[3.335098442601293],['Interesse_4'],0.011161244139429982,None,,,,,,,,,,,,,,,,,,,,,,,,,,,03,001,healthy,24,f,18,1,benedetta,2022-03-16_09h49.28.323,pilot_AIM1,2022.1.1,85.0016864231905,
DISGUSTO,NEUTRO,,,,,,,,,0,0,0,0,,,,,0,12,12,6,,,,,,,,,,,,,,,,,147.2647737278924,disgusto,216.3631207022121,Disgusto,4,[-182.0],[117.0],[1],[0],[0],[1.7113959947123476],['Disgusto_4'],0.011169884087166793,None,,,,,,,,,,,,,,,,,,,,,,,,,,,03,001,healthy,24,f,18,1,benedetta,2022-03-16_09h49.28.323,pilot_AIM1,2022.1.1,85.0016864231905,
COLPA,VERGOGNA,,,,,,,,,0,0,0,0,,,,,0,13,13,8,,,,,,,,,,,,,,,,,-166.67546873810923,colpa,195.25624189766637,Colpa,4,[-190.0],[-45.0],[1],[0],[0],[2.3467601316983746],['Colpa_4'],0.01122684374081473,None,,,,,,,,,,,,,,,,,,,,,,,,,,,03,001,healthy,24,f,18,1,benedetta,2022-03-16_09h49.28.323,pilot_AIM1,2022.1.1,85.0016864231905,
RABBIA,DISPREZZO,,,,,,,,,0,0,0,0,,,,,0,14,14,4,,,,,,,,,,,,,,,,,95.71059313749964,rabbia,190.9476368012969,Rabbia,4,[-19.0],[190.0],[1],[0],[0],[3.69937910777503],['Rabbia_4'],0.011185243993850236,None,,,,,,,,,,,,,,,,,,,,,,,,,,,03,001,healthy,24,f,18,1,benedetta,2022-03-16_09h49.28.323,pilot_AIM1,2022.1.1,85.0016864231905,
SPERANZA,NEUTRO,,,,,,,,,0,0,0,0,,,,,0,15,15,14,,,,,,,,,,,,,,,,,-36.23840660948149,speranza,199.6121238802894,Speranza,4,[161.0],[-118.0],[1],[0],[0],[2.417205143392721],['Speranza_4'],0.011177884038488628,None,,,,,,,,,,,,,,,,,,,,,,,,,,,03,001,healthy,24,f,18,1,benedetta,2022-03-16_09h49.28.323,pilot_AIM1,2022.1.1,85.0016864231905,
,,stimoli/02.subtle/JF2_Anger.wmv,angry,subtle,femmina,6,9,1646,926,0,0,0,0,,,,,,,,,0,0,0,5,,,,,,,,,,,,,99.21102654081668,rabbia,112.44998888394787,rabbia,3,,,,,,,,,,angry,[-274.0],[111.0],[1],[0],[0],[3.8993618918796074],['rabbia_3'],0.010742046688392293,None,-7.938264523545486,soglievo,265.8608658678445,tristezza,2,[246.0],[-70.0],[1],[0],[0],[11.814291369108332],['tristezza_6'],0.008063054976673811,None,,,03,001,healthy,24,f,18,1,benedetta,2022-03-16_09h49.28.323,pilot_AIM1,2022.1.1,85.0016864231905,
,,stimoli/02.subtle/JF2_Happiness.wmv,happy,subtle,femmina,6,9,1646,926,0,0,0,0,,,,,,,,,0,1,1,13,,,,,,,,,,,,,-78.69006752597979,sorpresa,107.07940978544848,sorpresa,3,,,,,,,,,,happy,[-235.0],[-105.0],[1],[0],[0],[7.699427107483189],['sorpresa_3'],0.010856605991648394,None,5.795531638218599,soddisfazione,263.8219096284461,gioia,3,[345.0],[61.0],[1],[0],[0],[2.4265516465659402],['gioia_7'],0.008950089583549925,None,,,03,001,healthy,24,f,18,1,benedetta,2022-03-16_09h49.28.323,pilot_AIM1,2022.1.1,85.0016864231905,
,,stimoli/02.subtle/JM2_Anger.wmv,angry,subtle,maschio,8,10,1646,926,0,0,0,0,,,,,,,,,0,2,2,7,,,,,,,,,,,,,-143.13010235415598,vergogna,105.0,vergogna,3,,,,,,,,,,angry,[-340.0],[-63.0],[1],[0],[0],[13.20505411327099],['vergogna_3'],0.010670367124248514,None,-7.611937596714912,soglievo,262.82693925851663,vergogna,3,[178.0],[-58.0],[1],[0],[0],[8.99162117094329],['vergogna_7'],0.00896320950369045,None,,,03,001,healthy,24,f,18,1,benedetta,2022-03-16_09h49.28.323,pilot_AIM1,2022.1.1,85.0016864231905,
,,stimoli/02.subtle/JF2_Neutral.wmv,neutral,subtle,femmina,6,9,1646,926,0,0,0,0,,,,,,,,,0,3,3,25,,,,,,,,,,,,,-165.96375653207352,colpa,4.123105625617661,neutral,1,,,,,,,,,,neutral,[-260.0],[-1.0],[1],[0],[0],[9.322959636405358],['neutral_1'],0.010834206128038204,None,0.11103819337801372,soddisfazione,256.5092590921427,neutral,1,[260.0],[1.0],[1],[0],[0],[2.367992642604804],['neutral_5'],0.008815050404564317,None,,,03,001,healthy,24,f,18,1,benedetta,2022-03-16_09h49.28.323,pilot_AIM1,2022.1.1,85.0016864231905,
,,stimoli/01.full/F03-Neutral-Face Forward.wmv,neutral,full,femmina,2,6,720,576,,,,,,,,,,,,,,,,,0,0,0,0,,,,,0,0,0,53,-58.760785111791236,interesse,71.34423592694787,interesse,2,,,,,,,,,,neutral,[-219.0],[-61.0],[1],[0],[0],[9.393459047769056],['interesse_2'],0.010844766063655698,None,-4.480001534968362,soglievo,259.2469864820033,paura,1,[229.0],[-38.0],[1],[0],[0],[8.214132458074573],['paura_5'],0.00804353509511202,None,n,4.871313676183718,03,001,healthy,24,f,18,1,benedetta,2022-03-16_09h49.28.323,pilot_AIM1,2022.1.1,85.0016864231905,
,,stimoli/02.subtle/JF1_Happiness.wmv,happy,subtle,femmina,5,10,1646,926,,,,,,,,,,,,,,,,,0,0,0,0,,,,,0,1,1,12,34.540090907070876,gioia,93.47726996441435,gioia,3,,,,,,,,,,happy,[-179.0],[53.0],[1],[0],[0],[7.84035617063455],['gioia_3'],0.01080604629919435,None,-2.1593097890821022,soglievo,257.71883904751706,sollievo,3,[354.0],[-23.0],[1],[0],[0],[4.685659511190124],['sollievo_7'],0.008945289612711349,None,,,03,001,healthy,24,f,18,1,benedetta,2022-03-16_09h49.28.323,pilot_AIM1,2022.1.1,85.0016864231905,
,,stimoli/01.full/M02-Anger-Face Forward.wmv,angry,full,maschio,3,6,720,576,,,,,,,,,,,,,,,,,0,0,0,0,,,,,0,2,2,34,102.15494169722223,rabbia,66.49060083951716,rabbia,2,,,,,,,,,,angry,[-270.0],[65.0],[1],[0],[0],[8.828636241891672],['rabbia_2'],0.01075484661032533,None,-7.245413560350668,soglievo,265.1339284210906,sorpresa,2,[271.0],[-67.0],[1],[0],[0],[4.603297131953468],['sorpresa_6'],0.009032649081518684,None,,,03,001,healthy,24,f,18,1,benedetta,2022-03-16_09h49.28.323,pilot_AIM1,2022.1.1,85.0016864231905,
,,stimoli/01.full/F03-Sadness-Face Forward.wmv,sad,full,femmina,2,6,720,576,,,,,,,,,,,,,,,,,0,0,0,0,,,,,0,3,3,45,-98.20721641191815,tristezza,105.07616285342742,tristezza,3,,,,,,,,,,sad,[-271.0],[-104.0],[1],[0],[0],[5.298926822524891],['tristezza_3'],0.010744606672915324,None,-7.348535811262378,soglievo,263.5792101058048,paura,2,[217.0],[-61.0],[1],[0],[0],[8.285956021387392],['paura_6'],0.00926656765932421,None,,,03,001,healthy,24,f,18,1,benedetta,2022-03-16_09h49.28.323,pilot_AIM1,2022.1.1,85.0016864231905,
,,stimoli/02.subtle/JM2_Sadness.wmv,sad,subtle,maschio,8,10,1646,926,,,,,,,,,,,,,,,,,0,0,0,0,,,,,0,4,4,19,-168.6900675259798,colpa,107.07940978544848,colpa,3,,,,,,,,,,sad,[-361.0],[-21.0],[1],[0],[0],[5.510856413992997],['colpa_3'],0.010679647067718179,None,-7.339606280031193,soglievo,262.1678851423263,vergogna,3,[171.0],[-55.0],[1],[0],[0],[5.662355012881562],['vergogna_7'],0.009100488668991602,None,,,03,001,healthy,24,f,18,1,benedetta,2022-03-16_09h49.28.323,pilot_AIM1,2022.1.1,85.0016864231905,
,,stimoli/01.full/M03-Disgust-Face Forward.wmv,disgusted,full,maschio,4,6,720,576,,,,,,,,,,,,,,,,,0,0,0,0,,,,,0,5,5,39,101.38917969805453,rabbia,141.79210133149166,rabbia,4,,,,,,,,,,disgusted,[-284.0],[139.0],[1],[0],[0],[2.698965350290564],['rabbia_4'],0.010606687511199198,None,5.840837503908278,soddisfazione,261.07470195329154,disprezzo,2,[223.0],[49.0],[1],[0],[0],[5.309425638692119],['disprezzo_6'],0.00910464864386995,None,,,03,001,healthy,24,f,18,1,benedetta,2022-03-16_09h49.28.323,pilot_AIM1,2022.1.1,85.0016864231905,
,,stimoli/01.full/F01-Surprise-Face Forward.wmv,surprised,full,femmina,1,6,720,576,,,,,,,,,,,,,,,,,0,0,0,0,,,,,0,6,6,48,-76.07165806084632,sorpresa,128.7866452703851,sorpresa,4,,,,,,,,,,surprised,[-225.0],[-125.0],[1],[0],[0],[5.299436899423654],['sorpresa_4'],0.010881245842028875,None,6.1339278307198475,soddisfazione,263.2679243660344,euforia,2,[293.0],[59.0],[1],[0],[0],[4.403106989109574],['euforia_6'],0.008716491003724514,None,,,03,001,healthy,24,f,18,1,benedetta,2022-03-16_09h49.28.323,pilot_AIM1,2022.1.1,85.0016864231905,
,,stimoli/01.full/M02-Surprise-Face Forward.wmv,surprised,full,maschio,3,6,720,576,,,,,,,,,,,,,,,,,0,0,0,0,,,,,0,7,7,50,-79.7431801583036,sorpresa,106.70520137275409,sorpresa,3,,,,,,,,,,surprised,[-237.0],[-105.0],[1],[0],[0],[5.58171902314848],['sorpresa_3'],0.010768286528673343,None,0.11060947555190032,soddisfazione,256.5131575572684,neutral,1,[262.0],[1.0],[1],[0],[0],[6.097185009115037],['neutral_5'],0.008790090556203722,None,,,03,001,healthy,24,f,18,1,benedetta,2022-03-16_09h49.28.323,pilot_AIM1,2022.1.1,85.0016864231905,
,,stimoli/02.subtle/JF2_Disgust.wmv,disgusted,subtle,femmina,6,10,1646,926,,,,,,,,,,,,,,,,,0,0,0,0,,,,,0,8,8,9,146.87384910237358,disgusto,140.90067423543437,disgusto,4,,,,,,,,,,disgusted,[-374.0],[77.0],[1],[0],[0],[1.8404451300937126],['disgusto_4'],0.010786526417859932,None,10.405208766978957,soddisfazione,269.4828380435385,disprezzo,3,[196.0],[83.0],[1],[0],[0],[2.5678560674350592],['disprezzo_7'],0.008835850278273938,None,,,03,001,healthy,24,f,18,1,benedetta,2022-03-16_09h49.28.323,pilot_AIM1,2022.1.1,85.0016864231905,
,,stimoli/02.subtle/JF1_Disgust.wmv,disgusted,subtle,femmina,5,10,1646,926,,,,,,,,,,,,,,,,,0,0,0,0,,,,,0,9,9,8,145.5699912208271,disgusto,150.3362896974646,disgusto,4,,,,,,,,,,disgusted,[-380.0],[85.0],[1],[0],[0],[2.052064643447011],['disgusto_4'],0.010763806556042255,None,0.112344521736011,soddisfazione,256.4975633412528,neutral,1,[254.0],[1.0],[0],[0],[0],[3.8383648227418234],['neutral_5'],0.008663691324727552,None,,,03,001,healthy,24,f,18,1,benedetta,2022-03-16_09h49.28.323,pilot_AIM1,2022.1.1,85.0016864231905,
,,stimoli/02.subtle/JM2_Neutral.wmv,neutral,subtle,maschio,8,10,1646,926,,,,,,,,,,,,,,,,,0,0,0,0,,,,,0,10,10,27,-127.87498365109822,paura,45.60701700396552,paura,1,,,,,,,,,,neutral,[-284.0],[-36.0],[1],[0],[0],[8.96979090367131],['paura_1'],0.010686367026892185,None,-0.11147024751704282,soglievo,256.5053605677667,neutral,1,[258.0],[-1.0],[1],[0],[0],[2.779844858543356],['neutral_5'],0.008922569750666298,None,,,03,001,healthy,24,f,18,1,benedetta,2022-03-16_09h49.28.323,pilot_AIM1,2022.1.1,85.0016864231905,
,,stimoli/02.subtle/JM1_Fear.wmv,fear,subtle,maschio,7,10,1646,926,,,,,,,,,,,,,,,,,0,0,0,0,,,,,0,11,11,2,-122.81136679806812,paura,90.4267659490264,paura,3,,,,,,,,,,fear,[-305.0],[-76.0],[1],[0],[0],[5.934508558187872],['paura_3'],0.010790686392510906,None,-10.057308914963816,soglievo,273.21420168065936,sorpresa,3,[274.0],[-94.0],[1],[0],[0],[3.8387632203196063],['sorpresa_7'],0.008919689768163153,None,,,03,001,healthy,24,f,18,1,benedetta,2022-03-16_09h49.28.323,pilot_AIM1,2022.1.1,85.0016864231905,
,,stimoli/02.subtle/JF2_Sadness.wmv,sad,subtle,femmina,6,8,1646,926,,,,,,,,,,,,,,,,,0,0,0,0,,,,,0,12,12,17,-103.83485315665874,tristezza,138.00362314084367,tristezza,4,,,,,,,,,,sad,[-289.0],[-134.0],[1],[0],[0],[4.38169079932004],['tristezza_4'],0.01069052700154316,None,-4.763641690726178,soglievo,259.02316498722655,vergogna,2,"[186.0, 188.0]","[-37.0, -37.0]","[1, 1]","[0, 0]","[0, 0]","[9.344227347097785, 10.120757665793462]",['vergogna_6'],0.008745930824488823,None,,,03,001,healthy,24,f,18,1,benedetta,2022-03-16_09h49.28.323,pilot_AIM1,2022.1.1,85.0016864231905,
,,stimoli/01.full/M02-Fear-Face Forward.wmv,fear,full,maschio,3,6,720,576,,,,,,,,,,,,,,,,,0,0,0,0,,,,,0,13,13,30,-77.09259132873416,sorpresa,98.48857801796105,sorpresa,3,,,,,,,,,,fear,[-234.0],[-96.0],[1],[0],[0],[3.699348067963683],['sorpresa_3'],0.010804446309066407,None,-9.892493377816491,soglievo,268.279704785882,paura,3,[197.0],[-79.0],[1],[0],[0],[1.5796623956525764],['paura_7'],0.008655051377218115,None,,,03,001,healthy,24,f,18,1,benedetta,2022-03-16_09h49.28.323,pilot_AIM1,2022.1.1,85.0016864231905,
,,stimoli/01.full/F01-Sadness-Face Forward.wmv,sad,full,femmina,1,6,720,576,,,,,,,,,,,,,,,,,0,0,0,0,,,,,0,14,14,44,-98.07023217791809,tristezza,135.34031180694095,tristezza,4,,,,,,,,,,sad,[-275.0],[-134.0],[1],[0],[0],[7.14623847087023],['tristezza_4'],0.010687967017020128,None,0.5595113108741891,soddisfazione,256.5482410775798,neutral,1,[256.0],[5.0],[1],[0],[0],[3.3911377818822075],['neutral_5'],0.008776970635835823,None,,,03,001,healthy,24,f,18,1,benedetta,2022-03-16_09h49.28.323,pilot_AIM1,2022.1.1,85.0016864231905,
,,stimoli/01.full/F03-Anger-Face Forward.wmv,angry,full,femmina,2,6,720,576,,,,,,,,,,,,,,,,,0,0,0,0,,,,,0,15,15,33,105.1540680503126,rabbia,99.45853407325085,rabbia,3,,,,,,,,,,angry,[-282.0],[96.0],[1],[0],[0],[2.9106674231420584],['rabbia_3'],0.010527327993941071,None,10.682794961091929,soddisfazione,272.8039589155553,rabbia,3,[237.0],[93.0],[1],[0],[0],[7.35604359525496],['rabbia_7'],0.008770890672622045,None,,,03,001,healthy,24,f,18,1,benedetta,2022-03-16_09h49.28.323,pilot_AIM1,2022.1.1,85.0016864231905,
,,stimoli/02.subtle/JF1_Fear.wmv,fear,subtle,femmina,5,10,1646,926,,,,,,,,,,,,,,,,,0,0,0,0,,,,,0,16,16,0,-122.56043798115344,paura,98.47842403288143,paura,3,,,,,,,,,,fear,[-309.0],[-83.0],[1],[0],[0],[5.3698988710148114],['paura_3'],0.010841886081152552,None,-2.345744532465485,soglievo,256.87350972803716,colpa,3,[159.0],[-17.0],[1],[0],[0],[3.838229463565085],['colpa_7'],0.008789130562036007,None,,,03,001,healthy,24,f,18,1,benedetta,2022-03-16_09h49.28.323,pilot_AIM1,2022.1.1,85.0016864231905,
,,stimoli/02.subtle/JM1_Anger.wmv,angry,subtle,maschio,7,10,1646,926,,,,,,,,,,,,,,,,,0,0,0,0,,,,,0,17,17,6,-169.3302171955033,colpa,70.21395872616783,colpa,2,,,,,,,,,,angry,[-325.0],[-13.0],[1],[0],[0],[9.746031624127681],['colpa_2'],0.010760286577578881,None,0.0,soddisfazione,256.4995126701024,neutral,1,[256.0],[0.0],[1],[0],[0],[2.991931249058098],['neutral_5'],0.009352327137776228,None,,,03,001,healthy,24,f,18,1,benedetta,2022-03-16_09h49.28.323,pilot_AIM1,2022.1.1,85.0016864231905,
,,stimoli/02.subtle/JM2_Happiness.wmv,happy,subtle,maschio,8,10,1646,926,,,,,,,,,,,,,,,,,0,0,0,0,,,,,0,18,18,15,56.47552675142305,euforia,95.96353474106714,euforia,3,,,,,,,,,,happy,[-203.0],[80.0],[1],[0],[0],[4.663811324026938],['euforia_3'],0.010686687024872299,None,-1.079073727096268,soglievo,256.87545620397447,sollievo,2,[328.0],[-11.0],[1],[0],[0],[4.050279374301454],['sollievo_6'],0.008822410359471178,None,,,03,001,healthy,24,f,18,1,benedetta,2022-03-16_09h49.28.323,pilot_AIM1,2022.1.1,85.0016864231905,
,,stimoli/02.subtle/JF2_Surprise.wmv,surprised,subtle,femmina,6,10,1646,926,,,,,,,,,,,,,,,,,0,0,0,0,,,,,0,19,19,21,123.9234502658317,disprezzo,136.1800279042415,disprezzo,4,,,,,,,,,,surprised,[-332.0],[113.0],[1],[0],[0],[1.6990357498627873],['disprezzo_4'],0.010852126019017305,None,10.135749725544589,soddisfazione,273.9215216079233,orgoglio,3,[281.0],[96.0],[1],[0],[0],[2.0622629814411084],['orgoglio_7'],0.009126088513312425,None,,,03,001,healthy,24,f,18,1,benedetta,2022-03-16_09h49.28.323,pilot_AIM1,2022.1.1,85.0016864231905,
,,stimoli/02.subtle/JF2_Happiness.wmv,happy,subtle,femmina,6,9,1646,926,,,,,,,,,,,,,,,,,0,0,0,0,,,,,0,20,20,13,34.03661035367036,gioia,137.56816492197603,gioia,4,,,,,,,,,,happy,[-142.0],[77.0],[1],[0],[0],[2.616730970275512],['gioia_4'],0.010734686733030685,None,-10.522268775866232,soglievo,274.9799992726744,sorpresa,3,[277.0],[-99.0],[1],[0],[0],[2.9209515206148353],['sorpresa_7'],0.008978889408126633,None,,,03,001,healthy,24,f,18,1,benedetta,2022-03-16_09h49.28.323,pilot_AIM1,2022.1.1,85.0016864231905,
,,stimoli/02.subtle/JM1_Happiness.wmv,happy,subtle,maschio,7,10,1646,926,,,,,,,,,,,,,,,,,0,0,0,0,,,,,0,21,21,14,32.53506715793501,gioia,68.79680225126747,gioia,2,,,,,,,,,,happy,[-198.0],[37.0],[1],[0],[0],[11.087332269019953],['gioia_2'],0.010804446308839033,None,-7.338606336236236,soglievo,265.39027864637393,sorpresa,2,[272.0],[-68.0],[1],[0],[0],[3.827013531757757],['sorpresa_6'],0.009293767493772975,None,,,03,001,healthy,24,f,18,1,benedetta,2022-03-16_09h49.28.323,pilot_AIM1,2022.1.1,85.0016864231905,
,,stimoli/02.subtle/JF1_Sadness.wmv,sad,subtle,femmina,5,10,1646,926,,,,,,,,,,,,,,,,,0,0,0,0,,,,,0,22,22,16,-167.13724898104178,colpa,130.26895255585654,colpa,4,,,,,,,,,,sad,[-383.0],[-29.0],[1],[0],[0],[3.1812004983007682],['colpa_4'],0.010701726933348255,None,-10.975655172812552,soglievo,273.844846582878,tristezza,3,[239.0],[-96.0],[1],[0],[0],[3.062485380088674],['tristezza_7'],0.009316167357155791,None,,,03,001,healthy,24,f,18,1,benedetta,2022-03-16_09h49.28.323,pilot_AIM1,2022.1.1,85.0016864231905,
,,stimoli/01.full/F03-Surprise-Face Forward.wmv,surprised,full,femmina,2,6,720,576,,,,,,,,,,,,,,,,,0,0,0,0,,,,,0,23,23,49,-75.49335840247566,sorpresa,147.70917371646217,sorpresa,4,,,,,,,,,,surprised,[-219.0],[-143.0],[1],[0],[0],[4.263784316191504],['sorpresa_4'],0.010660127185929014,None,6.328757744961498,soddisfazione,263.7252358042362,euforia,2,[294.0],[61.0],[1],[0],[0],[2.638415638432889],['euforia_6'],0.008795210525022412,None,,,03,001,healthy,24,f,18,1,benedetta,2022-03-16_09h49.28.323,pilot_AIM1,2022.1.1,85.0016864231905,
,,stimoli/01.full/M03-Fear-Face Forward.wmv,fear,full,maschio,4,6,720,576,,,,,,,,,,,,,,,,,0,0,0,0,,,,,0,24,24,31,149.82647997035568,disgusto,99.4786409235671,disgusto,3,,,,,,,,,,fear,[-342.0],[50.0],[1],[0],[0],[7.345737737914533],['disgusto_3'],0.01052316801951747,None,-10.510508360702666,soglievo,275.35250135054156,sorpresa,3,[283.0],[-100.0],[1],[0],[0],[3.050839690894918],['sorpresa_7'],0.009443526583254425,None,,,03,001,healthy,24,f,18,1,benedetta,2022-03-16_09h49.28.323,pilot_AIM1,2022.1.1,85.0016864231905,
,,stimoli/02.subtle/JM1_Surprise.wmv,surprised,subtle,maschio,7,10,1646,926,,,,,,,,,,,,,,,,,0,0,0,0,,,,,0,25,25,22,-80.20379008252549,sorpresa,141.05672617780408,sorpresa,4,,,,,,,,,,surprised,[-232.0],[-139.0],[1],[0],[0],[3.39342000800616],['sorpresa_4'],0.010679647068172926,None,-14.676393137450013,soglievo,293.72606285449035,sorpresa,4,[290.0],[-143.0],[1],[0],[0],[4.332587417868581],['sorpresa_8'],0.008746250822696311,None,,,03,001,healthy,24,f,18,1,benedetta,2022-03-16_09h49.28.323,pilot_AIM1,2022.1.1,85.0016864231905,
,,stimoli/01.full/F03-Disgust-Face Forward.wmv,disgusted,full,femmina,2,6,720,576,,,,,,,,,,,,,,,,,0,0,0,0,,,,,0,26,26,37,149.3002774491856,disgusto,148.86235252742716,disgusto,4,,,,,,,,,,disgusted,[-384.0],[76.0],[1],[0],[0],[1.8405603293931563],['disgusto_4'],0.010766686538318027,None,15.739808835770459,soddisfazione,289.7999309868793,rabbia,4,[223.0],[135.0],[1],[0],[0],[2.2147586942674025],['rabbia_8'],0.00859393174869183,None,,,03,001,healthy,24,f,18,1,benedetta,2022-03-16_09h49.28.323,pilot_AIM1,2022.1.1,85.0016864231905,
,,stimoli/01.full/M03-Joy-Face Forward.wmv,happy,full,maschio,4,6,720,576,,,,,,,,,,,,,,,,,0,0,0,0,,,,,0,27,27,43,33.578813725000714,gioia,142.8355697996826,gioia,4,,,,,,,,,,happy,[-137.0],[79.0],[1],[0],[0],[2.19333578451824],['gioia_4'],0.010810526271143317,None,-10.873520395255051,soglievo,276.07064313323866,sorpresa,3,[275.0],[-102.0],[1],[0],[0],[2.073881470800643],['sorpresa_7'],0.008944009620790894,None,,,03,001,healthy,24,f,18,1,benedetta,2022-03-16_09h49.28.323,pilot_AIM1,2022.1.1,85.0016864231905,
,,stimoli/02.subtle/JF1_Neutral.wmv,neutral,subtle,femmina,5,10,1646,926,,,,,,,,,,,,,,,,,0,0,0,0,,,,,0,28,28,24,-104.03624346792648,tristezza,4.123105625617661,neutral,1,,,,,,,,,,neutral,[-257.0],[-4.0],[1],[0],[0],[12.499212964785329],['neutral_1'],0.01076220656523219,None,0.0,soddisfazione,256.50341128335896,neutral,1,[258.0],[0.0],[1],[0],[0],[1.1445991208374835],['neutral_5'],0.008888649957043526,None,,,03,001,healthy,24,f,18,1,benedetta,2022-03-16_09h49.28.323,pilot_AIM1,2022.1.1,85.0016864231905,
,,stimoli/01.full/M02-Joy-Face Forward.wmv,happy,full,maschio,3,6,720,576,,,,,,,,,,,,,,,,,0,0,0,0,,,,,0,29,29,42,56.74563342528795,euforia,72.94518489934754,euforia,2,,,,,,,,,,happy,[-216.0],[61.0],[1],[0],[0],[3.122814933285099],['euforia_2'],0.010613087471938343,None,3.688179372423222,soddisfazione,259.27398635420406,gioia,2,[318.0],[37.0],[1],[0],[0],[1.93217417238111],['gioia_6'],0.00864577143374845,None,,,03,001,healthy,24,f,18,1,benedetta,2022-03-16_09h49.28.323,pilot_AIM1,2022.1.1,85.0016864231905,
,,stimoli/01.full/M03-Anger-Face Forward.wmv,angry,full,maschio,4,6,720,576,,,,,,,,,,,,,,,,,0,0,0,0,,,,,0,30,30,35,101.85977912094799,rabbia,102.18121158021175,rabbia,3,,,,,,,,,,angry,[-277.0],[100.0],[1],[0],[0],[2.557822208440939],['rabbia_3'],0.010611807480927382,None,10.768144561107833,soddisfazione,272.79662754513663,rabbia,3,[233.0],[93.0],[1],[0],[0],[4.685474232316665],['rabbia_7'],0.008737290876979387,None,,,03,001,healthy,24,f,18,1,benedetta,2022-03-16_09h49.28.323,pilot_AIM1,2022.1.1,85.0016864231905,
,,stimoli/02.subtle/JF2_Anger.wmv,angry,subtle,femmina,6,9,1646,926,,,,,,,,,,,,,,,,,0,0,0,0,,,,,0,31,31,5,100.35332004392944,rabbia,105.72133181151285,rabbia,3,,,,,,,,,,angry,[-275.0],[104.0],[1],[0],[0],[5.369963510621801],['rabbia_3'],0.01087772586288338,None,-2.8829634525395402,soglievo,257.1730934604163,colpa,3,[161.0],[-21.0],[1],[0],[0],[3.120918304816769],['colpa_7'],0.008769290682266728,None,,,03,001,healthy,24,f,18,1,benedetta,2022-03-16_09h49.28.323,pilot_AIM1,2022.1.1,85.0016864231905,
,,stimoli/01.full/F03-Fear-Face Forward.wmv,fear,full,femmina,2,6,720,576,,,,,,,,,,,,,,,,,0,0,0,0,,,,,0,32,32,29,-122.40667004389688,paura,136.2130683891968,paura,4,,,,,,,,,,fear,[-329.0],[-115.0],[1],[0],[0],[5.028683345605259],['paura_4'],0.010595167580959242,None,-7.3523793598923595,soglievo,265.3883946219201,sorpresa,2,[271.0],[-68.0],[1],[0],[0],[9.48541688866544],['sorpresa_6'],0.008672331272009615,None,,,03,001,healthy,24,f,18,1,benedetta,2022-03-16_09h49.28.323,pilot_AIM1,2022.1.1,85.0016864231905,
,,stimoli/01.full/F01-Anger-Face Forward.wmv,angry,full,femmina,1,6,720,576,,,,,,,,,,,,,,,,,0,0,0,0,,,,,0,33,33,32,-78.02386755579664,sorpresa,67.468511173732,sorpresa,2,,,,,,,,,,angry,[-242.0],[-66.0],[1],[0],[0],[10.522843861109322],['sorpresa_2'],0.01079132638824376,None,4.895855221206709,soddisfazione,260.05960855157804,rabbia,1,[246.0],[43.0],[1],[0],[0],[6.579682555529871],['rabbia_5'],0.008827850326724729,None,,,03,001,healthy,24,f,18,1,benedetta,2022-03-16_09h49.28.323,pilot_AIM1,2022.1.1,85.0016864231905,
,,stimoli/02.subtle/JM2_Fear.wmv,fear,subtle,maschio,8,10,1646,926,,,,,,,,,,,,,,,,,0,0,0,0,,,,,0,34,34,3,-169.01934998982648,colpa,136.49908424601244,colpa,4,,,,,,,,,,fear,[-390.0],[-26.0],[1],[0],[0],[1.6993403880105689],['colpa_4'],0.010787806410462508,None,-6.748399044169505,soglievo,261.36564426106196,vergogna,3,[175.0],[-51.0],[1],[0],[0],[2.76778925184135],['vergogna_7'],0.008661771335937374,None,,,03,001,healthy,24,f,18,1,benedetta,2022-03-16_09h49.28.323,pilot_AIM1,2022.1.1,85.0016864231905,
,,stimoli/02.subtle/JM1_Neutral.wmv,neutral,subtle,maschio,7,10,1646,926,,,,,,,,,,,,,,,,,0,0,0,0,,,,,0,35,35,26,83.418055344822,orgoglio,104.6900186264192,orgoglio,3,,,,,,,,,,neutral,[-244.0],[104.0],[1],[0],[0],[2.122705173952454],['orgoglio_3'],0.01075164662915995,None,7.259724046259812,soddisfazione,263.34578029655233,disprezzo,2,[215.0],[60.0],[1],[0],[0],[2.9914733318423714],['disprezzo_6'],0.008915529793284804,None,,,03,001,healthy,24,f,18,1,benedetta,2022-03-16_09h49.28.323,pilot_AIM1,2022.1.1,85.0016864231905,
,,stimoli/02.subtle/JF1_Anger.wmv,angry,subtle,femmina,5,10,1646,926,,,,,,,,,,,,,,,,,0,0,0,0,,,,,0,36,36,4,-126.55247275209153,paura,72.20110802473879,paura,2,,,,,,,,,,angry,[-299.0],[-58.0],[1],[0],[0],[5.36978239172322],['paura_2'],0.010814366248723672,None,4.543757651467153,soddisfazione,258.8995944376893,disgusto,2,[197.0],[36.0],[1],[0],[0],[12.015122468055779],['disgusto_6'],0.00892160975627121,None,,,03,001,healthy,24,f,18,1,benedetta,2022-03-16_09h49.28.323,pilot_AIM1,2022.1.1,85.0016864231905,
,,stimoli/02.subtle/JM2_Anger.wmv,angry,subtle,maschio,8,10,1646,926,,,,,,,,,,,,,,,,,0,0,0,0,,,,,0,37,37,7,102.15494169722223,rabbia,66.49060083951716,rabbia,2,,,,,,,,,,angry,[-270.0],[65.0],[1],[0],[0],[1.628661457738417],['rabbia_2'],0.010848606040326558,None,-5.013113755035808,soglievo,259.49181104612916,vergogna,2,[200.0],[-40.0],[1],[0],[0],[3.767781251890028],['vergogna_6'],0.008983049383004982,None,,,03,001,healthy,24,f,18,1,benedetta,2022-03-16_09h49.28.323,pilot_AIM1,2022.1.1,85.0016864231905,
,,stimoli/02.subtle/JM1_Sadness.wmv,sad,subtle,maschio,7,10,1646,926,,,,,,,,,,,,,,,,,0,0,0,0,,,,,0,38,38,18,-101.63363399894044,tristezza,138.85243966167826,tristezza,4,,,,,,,,,,sad,[-284.0],[-136.0],[1],[0],[0],[2.6871363022114565],['tristezza_4'],0.010781086451061128,None,-2.904694385091213,soglievo,257.5441709687874,vergogna,1,[217.0],[-24.0],[1],[0],[0],[6.168266176941415],['vergogna_5'],0.009232967863681552,None,,,03,001,healthy,24,f,18,1,benedetta,2022-03-16_09h49.28.323,pilot_AIM1,2022.1.1,85.0016864231905,
,,stimoli/02.subtle/JM2_Surprise.wmv,surprised,subtle,maschio,8,10,1646,926,,,,,,,,,,,,,,,,,0,0,0,0,,,,,0,39,39,23,-75.47985098146297,sorpresa,143.58621103713267,sorpresa,4,,,,,,,,,,surprised,[-220.0],[-139.0],[1],[0],[0],[4.946332806296141],['sorpresa_4'],0.010676127089027432,None,5.948847667049017,soddisfazione,264.04355701285346,gioia,3,[339.0],[62.0],[1],[0],[0],[1.8616773210019346],['gioia_7'],0.008816970392672374,None,,,03,001,healthy,24,f,18,1,benedetta,2022-03-16_09h49.28.323,pilot_AIM1,2022.1.1,85.0016864231905,
,,stimoli/01.full/M02-Neutral-Face Forward.wmv,neutral,full,maschio,3,6,720,576,,,,,,,,,,,,,,,,,0,0,0,0,,,,,0,40,40,54,-57.52880770915151,interesse,65.19202405202648,interesse,2,,,,,,,,,,neutral,[-221.0],[-55.0],[1],[0],[0],[4.3931752094945296],['interesse_2'],0.010611167483602912,None,0.44936944870796314,soddisfazione,256.52680171865086,neutral,1,[254.0],[4.0],[1],[0],[0],[1.297315312322553],['neutral_5'],0.00883745026840188,None,,,03,001,healthy,24,f,18,1,benedetta,2022-03-16_09h49.28.323,pilot_AIM1,2022.1.1,85.0016864231905,
,,stimoli/01.full/M03-Surprise-Face Forward.wmv,surprised,full,maschio,4,6,720,576,,,,,,,,,,,,,,,,,0,0,0,0,,,,,0,41,41,51,-80.11587599247792,sorpresa,133.98880550254935,sorpresa,4,,,,,,,,,,surprised,[-233.0],[-132.0],[1],[0],[0],[3.334268367648292],['sorpresa_4'],0.01071932682680199,None,-5.235589661798443,soglievo,260.5724467398654,tristezza,1,[246.0],[-46.0],[1],[0],[0],[6.085877237866498],['tristezza_5'],0.008895689913970273,None,,,03,001,healthy,24,f,18,1,benedetta,2022-03-16_09h49.28.323,pilot_AIM1,2022.1.1,85.0016864231905,
,,stimoli/02.subtle/JM1_Disgust.wmv,disgusted,subtle,maschio,7,10,1646,926,,,,,,,,,,,,,,,,,0,0,0,0,,,,,0,42,42,10,143.3580684437,disgusto,150.8011936292283,disgusto,4,,,,,,,,,,disgusted,[-377.0],[90.0],[1],[0],[0],[1.7697780397493261],['disgusto_4'],0.010860445968774002,None,-9.724128868732938,soglievo,268.2946141837365,paura,3,[205.0],[-79.0],[1],[0],[0],[2.497245296748588],['paura_7'],0.00899616930337288,None,,,03,001,healthy,24,f,18,1,benedetta,2022-03-16_09h49.28.323,pilot_AIM1,2022.1.1,85.0016864231905,
,,stimoli/02.subtle/JF1_Surprise.wmv,surprised,subtle,femmina,5,10,1646,926,,,,,,,,,,,,,,,,,0,0,0,0,,,,,0,43,43,20,-77.56043798115346,sorpresa,139.26952286842948,sorpresa,4,,,,,,,,,,surprised,[-226.0],[-136.0],[1],[0],[0],[1.7812320501088834],['sorpresa_4'],0.010714206857755926,None,5.834788996841338,soddisfazione,262.60997696203395,euforia,2,[292.0],[56.0],[1],[0],[0],[4.7446210727039215],['euforia_6'],0.009136328450949804,None,,,03,001,healthy,24,f,18,1,benedetta,2022-03-16_09h49.28.323,pilot_AIM1,2022.1.1,85.0016864231905,
,,stimoli/02.subtle/JF2_Neutral.wmv,neutral,subtle,femmina,6,9,1646,926,,,,,,,,,,,,,,,,,0,0,0,0,,,,,0,44,44,25,-56.659292653523,interesse,45.48626166217664,interesse,1,,,,,,,,,,neutral,[-231.0],[-38.0],[1],[0],[0],[6.217077080171293],['interesse_1'],0.010678367075342976,None,0.22424848122371066,soddisfazione,256.5053605677667,neutral,1,[255.0],[2.0],[1],[0],[0],[1.650137807162082],['neutral_5'],0.008620811585387855,None,,,03,001,healthy,24,f,18,1,benedetta,2022-03-16_09h49.28.323,pilot_AIM1,2022.1.1,85.0016864231905,
,,stimoli/01.full/F01-Fear-Face Forward.wmv,fear,full,femmina,1,6,720,576,,,,,,,,,,,,,,,,,0,0,0,0,,,,,0,45,45,28,-77.71904559490062,sorpresa,150.44268011438774,sorpresa,4,,,,,,,,,,fear,[-224.0],[-147.0],[1],[0],[0],[2.8399443331386465],['sorpresa_4'],0.010690527001315786,None,-13.881890987035863,soglievo,278.1744057241787,paura,4,[181.0],[-108.0],[1],[0],[0],[1.8741025254562373],['paura_8'],0.009362247078115615,None,,,03,001,healthy,24,f,18,1,benedetta,2022-03-16_09h49.28.323,pilot_AIM1,2022.1.1,85.0016864231905,
,,stimoli/01.full/F01-Disgust-Face Forward.wmv,disgusted,full,femmina,1,6,720,576,,,,,,,,,,,,,,,,,0,0,0,0,,,,,0,46,46,36,147.0391121160223,disgusto,152.55490814785344,disgusto,4,,,,,,,,,,disgusted,[-384.0],[83.0],[1],[0],[0],[4.099057957727837],['disgusto_4'],0.010807326290887431,None,11.577876488822744,soddisfazione,275.63381505178205,rabbia,3,[237.0],[101.0],[1],[0],[0],[2.62706530744299],['rabbia_7'],0.009286727536618855,None,,,03,001,healthy,24,f,18,1,benedetta,2022-03-16_09h49.28.323,pilot_AIM1,2022.1.1,85.0016864231905,
,,stimoli/01.full/M02-Disgust-Face Forward.wmv,disgusted,full,maschio,3,6,720,576,,,,,,,,,,,,,,,,,0,0,0,0,,,,,0,47,47,38,125.98679564435727,disprezzo,103.81233067415451,disprezzo,3,,,,,,,,,,disgusted,[-317.0],[84.0],[1],[0],[0],[4.039973836958779],['disprezzo_3'],0.010592607597118331,None,10.591527747971378,soddisfazione,272.4628415032039,rabbia,3,[236.0],[92.0],[1],[0],[0],[3.2036141220260106],['rabbia_7'],0.009215687968662678,None,,,03,001,healthy,24,f,18,1,benedetta,2022-03-16_09h49.28.323,pilot_AIM1,2022.1.1,85.0016864231905,
,,stimoli/02.subtle/JF2_Fear.wmv,fear,subtle,femmina,6,10,1646,926,,,,,,,,,,,,,,,,,0,0,0,0,,,,,0,48,48,1,-128.13357019750228,paura,136.03308421115798,paura,4,,,,,,,,,,fear,[-340.0],[-107.0],[1],[0],[0],[1.4872063177854216],['paura_4'],0.010631647360241914,None,-14.743562836470735,soglievo,294.71342012198903,sorpresa,4,[295.0],[-145.0],[1],[0],[0],[5.591669682648444],['sorpresa_8'],0.00892192975470607,None,,,03,001,healthy,24,f,18,1,benedetta,2022-03-16_09h49.28.323,pilot_AIM1,2022.1.1,85.0016864231905,
,,stimoli/01.full/M02-Sadness-Face Forward.wmv,sad,full,maschio,3,6,720,576,,,,,,,,,,,,,,,,,0,0,0,0,,,,,0,49,49,46,-127.87498365109822,paura,148.22280526288793,paura,4,,,,,,,,,,sad,[-347.0],[-117.0],[1],[0],[0],[1.6991541491424869],['paura_4'],0.010804126310631545,None,-14.743562836470735,soglievo,292.2533147801749,sorpresa,4,[276.0],[-140.0],[1],[0],[0],[2.4860248849686286],['sorpresa_8'],0.00910112866495183,None,,,03,001,healthy,24,f,18,1,benedetta,2022-03-16_09h49.28.323,pilot_AIM1,2022.1.1,85.0016864231905,
,,stimoli/01.full/F03-Joy-Face Forward.wmv,happy,full,femmina,2,6,720,576,,,,,,,,,,,,,,,,,0,0,0,0,,,,,0,50,50,41,34.011348903506025,gioia,148.38463532320318,gioia,4,,,,,,,,,,happy,[-133.0],[83.0],[1],[0],[0],[2.6874143805207495],['gioia_4'],0.010766366539883165,None,11.14428500247835,soddisfazione,282.49424772904666,euforia,4,[343.0],[118.0],[1],[0],[0],[4.191543155417548],['euforia_8'],0.008896969905890728,None,,,03,001,healthy,24,f,18,1,benedetta,2022-03-16_09h49.28.323,pilot_AIM1,2022.1.1,85.0016864231905,
,,stimoli/01.full/F01-Joy-Face Forward.wmv,happy,full,femmina,1,6,720,576,,,,,,,,,,,,,,,,,0,0,0,0,,,,,0,51,51,40,37.23483398157467,gioia,94.2019108086455,gioia,3,,,,,,,,,,happy,[-181.0],[57.0],[1],[0],[0],[2.758302269522119],['gioia_3'],0.010828126164597052,None,2.322736512115608,soddisfazione,258.0639455638854,soddisfazione,4,[385.0],[26.0],[1],[0],[0],[1.7206471384652104],['soddisfazione_8'],0.008687371180712944,None,,,03,001,healthy,24,f,18,1,benedetta,2022-03-16_09h49.28.323,pilot_AIM1,2022.1.1,85.0016864231905,
,,stimoli/02.subtle/JM2_Disgust.wmv,disgusted,subtle,maschio,8,10,1646,926,,,,,,,,,,,,,,,,,0,0,0,0,,,,,0,52,52,11,144.97512672045863,disgusto,142.87407042567241,disgusto,4,,,,,,,,,,disgusted,[-373.0],[82.0],[1],[0],[0],[2.263976635022118],['disgusto_4'],0.010857565985588735,None,-11.332235228640398,soglievo,274.90907587782544,tristezza,3,[238.0],[-99.0],[1],[0],[0],[1.5088593061354914],['tristezza_7'],0.008895369915990159,None,,,03,001,healthy,24,f,18,1,benedetta,2022-03-16_09h49.28.323,pilot_AIM1,2022.1.1,85.0016864231905,
,,stimoli/01.full/M03-Neutral-Face Forward.wmv,neutral,full,maschio,4,6,720,576,,,,,,,,,,,,,,,,,0,0,0,0,,,,,0,53,53,55,-55.22216863363612,interesse,43.829214001622255,interesse,1,,,,,,,,,,neutral,[-231.0],[-36.0],[1],[0],[0],[4.099156837126429],['interesse_1'],0.010556127818745153,None,0.22381050036853808,soddisfazione,256.50730983736116,neutral,1,[256.0],[2.0],[1],[0],[0],[4.461949831345009],['neutral_5'],0.008712651027053653,None,,,03,001,healthy,24,f,18,1,benedetta,2022-03-16_09h49.28.323,pilot_AIM1,2022.1.1,85.0016864231905,
,,stimoli/01.full/F01-Neutral-Face Forward.wmv,neutral,full,femmina,1,6,720,576,,,,,,,,,,,,,,,,,0,0,0,0,,,,,0,54,54,52,167.7352262721076,invidia,47.07440918375928,invidia,1,,,,,,,,,,neutral,[-302.0],[10.0],[1],[0],[0],[4.946239046866594],['invidia_1'],0.010739806701622001,None,0.335713616182199,soddisfazione,256.51705596314645,neutral,1,[256.0],[3.0],[1],[0],[0],[1.7913043088697123],['neutral_5'],0.008749450802952197,None,,,03,001,healthy,24,f,18,1,benedetta,2022-03-16_09h49.28.323,pilot_AIM1,2022.1.1,85.0016864231905,
,,stimoli/01.full/M03-Sadness-Face Forward.wmv,sad,full,maschio,4,6,720,576,,,,,,,,,,,,,,,,,0,0,0,0,,,,,0,55,55,47,-104.31482691040488,tristezza,149.64624953536256,tristezza,4,,,,,,,,,,sad,[-293.0],[-145.0],[1],[0],[0],[2.2754684051524237],['tristezza_4'],0.010491168214230129,None,-6.260577467117551,soglievo,261.6447973876033,paura,2,[218.0],[-52.0],[1],[0],[0],[3.6263827515927005],['paura_6'],0.008471692492094007,None,,,03,001,healthy,24,f,18,1,benedetta,2022-03-16_09h49.28.323,pilot_AIM1,2022.1.1,85.0016864231905,
,,stimoli/01.full/M02-Disgust-Face Forward.wmv,disgusted,full,maschio,3,6,720,576,,,,,,,,,,,,,,,,,1,0,1,0,,,,,0,0,0,38,104.1780644147069,rabbia,97.98469268207153,rabbia,3,,,,,,,,,,disgusted,[-280.0],[95.0],[1],[0],[0],[4.2519034284268855],['rabbia_3'],0.010622687413615495,None,11.851248943668542,soddisfazione,268.7508139522558,disgusto,4,[130.0],[81.0],[1],[0],[0],[3.4143485207609956],['disgusto_8'],0.008079054879544856,None,,,03,001,healthy,24,f,18,1,benedetta,2022-03-16_09h49.28.323,pilot_AIM1,2022.1.1,85.0016864231905,
,,stimoli/01.full/M02-Neutral-Face Forward.wmv,neutral,full,maschio,3,6,720,576,,,,,,,,,,,,,,,,,1,0,1,0,,,,,0,1,1,54,-58.12040315297727,interesse,96.56603957913983,interesse,3,,,,,,,,,,neutral,[-205.0],[-82.0],[1],[0],[0],[1.7106497592494634],['interesse_3'],0.010604127526221419,None,-0.11212467000483774,soglievo,256.4995126701024,neutral,1,[255.0],[-1.0],[1],[0],[0],[5.391525619524145],['neutral_5'],0.009026569118304906,None,,,03,001,healthy,24,f,18,1,benedetta,2022-03-16_09h49.28.323,pilot_AIM1,2022.1.1,85.0016864231905,
,,stimoli/01.full/F01-Surprise-Face Forward.wmv,surprised,full,femmina,1,6,720,576,,,,,,,,,,,,,,,,,1,0,1,0,,,,,0,2,2,48,-79.47921568612564,sorpresa,142.3938200906205,sorpresa,4,,,,,,,,,,surprised,[-230.0],[-140.0],[1],[0],[0],[2.1226901340437507],['sorpresa_4'],0.010771806507818837,None,3.8000420695665102,soddisfazione,259.07141872464433,euforia,1,[286.0],[36.0],[1],[0],[0],[8.791575667220059],['euforia_5'],0.008880010009761463,None,,,03,001,healthy,24,f,18,1,benedetta,2022-03-16_09h49.28.323,pilot_AIM1,2022.1.1,85.0016864231905,
,,stimoli/01.full/F03-Sadness-Face Forward.wmv,sad,full,femmina,2,6,720,576,,,,,,,,,,,,,,,,,1,0,1,0,,,,,0,3,3,45,-103.43102887068167,tristezza,137.7679207943562,tristezza,4,,,,,,,,,,sad,[-288.0],[-134.0],[1],[0],[0],[3.534524750089531],['tristezza_4'],0.010724766792918672,None,-10.159765919143553,soglievo,268.87357623983803,paura,3,[196.0],[-81.0],[1],[0],[0],[1.4974081757586646],['paura_7'],0.008889289953003754,None,,,03,001,healthy,24,f,18,1,benedetta,2022-03-16_09h49.28.323,pilot_AIM1,2022.1.1,85.0016864231905,
,,stimoli/02.subtle/JF1_Sadness.wmv,sad,subtle,femmina,5,10,1646,926,,,,,,,,,,,,,,,,,1,0,1,0,,,,,0,4,4,16,147.65255650055798,disgusto,106.53168542738823,disgusto,3,,,,,,,,,,sad,[-346.0],[57.0],[1],[0],[0],[2.4048845783017896],['disgusto_3'],0.010733086742675368,None,-2.5138102361777377,soglievo,256.93189759156024,colpa,3,[154.0],[-18.0],[1],[0],[0],[1.9326084097406238],['colpa_7'],0.008784970586930285,None,,,03,001,healthy,24,f,18,1,benedetta,2022-03-16_09h49.28.323,pilot_AIM1,2022.1.1,85.0016864231905,
,,stimoli/02.subtle/JM1_Disgust.wmv,disgusted,subtle,maschio,7,10,1646,926,,,,,,,,,,,,,,,,,1,0,1,0,,,,,0,5,5,10,147.3807569288072,disgusto,148.4082207965583,disgusto,4,,,,,,,,,,disgusted,[-381.0],[80.0],[1],[0],[0],[1.9814356328711256],['disgusto_4'],0.01073212674828028,None,4.685899839502703,soddisfazione,259.55346270084704,disprezzo,1,[232.0],[40.0],[1],[0],[0],[6.450306702135094],['disprezzo_5'],0.008895369915990159,None,,,03,001,healthy,24,f,18,1,benedetta,2022-03-16_09h49.28.323,pilot_AIM1,2022.1.1,85.0016864231905,
,,stimoli/02.subtle/JF2_Surprise.wmv,surprised,subtle,femmina,6,10,1646,926,,,,,,,,,,,,,,,,,1,0,1,0,,,,,0,6,6,21,80.47271661854764,orgoglio,145.0,orgoglio,4,,,,,,,,,,surprised,[-232.0],[143.0],[1],[0],[0],[2.2640451146053238],['orgoglio_4'],0.010869085916056065,None,1.6733333744709136,soddisfazione,256.69826645304795,invidia,2,[189.0],[13.0],[1],[0],[0],[3.4854872882374366],['invidia_6'],0.008883209990017349,None,,,03,001,healthy,24,f,18,1,benedetta,2022-03-16_09h49.28.323,pilot_AIM1,2022.1.1,85.0016864231905,
,,stimoli/01.full/M02-Sadness-Face Forward.wmv,sad,full,maschio,3,6,720,576,,,,,,,,,,,,,,,,,1,0,1,0,,,,,0,7,7,46,-124.17698877379291,paura,97.9081201943945,paura,3,,,,,,,,,,sad,[-311.0],[-81.0],[1],[0],[0],[2.0522780821493143],['paura_3'],0.010784606429751875,None,-7.922683284308453,soglievo,265.862746544152,tristezza,2,[247.0],[-70.0],[1],[0],[0],[3.0620786625618166],['tristezza_6'],0.00878017061677383,None,,,03,001,healthy,24,f,18,1,benedetta,2022-03-16_09h49.28.323,pilot_AIM1,2022.1.1,85.0016864231905,
,,stimoli/01.full/F03-Joy-Face Forward.wmv,happy,full,femmina,2,6,720,576,,,,,,,,,,,,,,,,,1,0,1,0,,,,,0,8,8,41,34.362785490709925,gioia,141.73566946961517,gioia,4,,,,,,,,,,happy,[-139.0],[80.0],[1],[0],[0],[4.181355377359523],['gioia_4'],0.010677407081857382,None,1.871744965288753,soddisfazione,257.47232861028,soddisfazione,3,[356.0],[20.0],[1],[0],[0],[2.3445300652574588],['soddisfazione_7'],0.009098568680656172,None,,,03,001,healthy,24,f,18,1,benedetta,2022-03-16_09h49.28.323,pilot_AIM1,2022.1.1,85.0016864231905,
,,stimoli/01.full/M02-Fear-Face Forward.wmv,fear,full,maschio,3,6,720,576,,,,,,,,,,,,,,,,,1,0,1,0,,,,,0,9,9,30,-79.00749241973229,sorpresa,141.59802258506295,sorpresa,4,,,,,,,,,,fear,[-229.0],[-139.0],[1],[0],[0],[3.604777122955511],['sorpresa_4'],0.01081308625634847,None,-6.618646246451301,soglievo,262.25750704221986,paura,2,[218.0],[-55.0],[1],[0],[0],[2.768451967812325],['paura_6'],0.009179528188724362,None,,,03,001,healthy,24,f,18,1,benedetta,2022-03-16_09h49.28.323,pilot_AIM1,2022.1.1,85.0016864231905,
,,stimoli/01.full/F01-Neutral-Face Forward.wmv,neutral,full,femmina,1,6,720,576,,,,,,,,,,,,,,,,,1,0,1,0,,,,,0,10,10,52,-54.16234704572171,interesse,44.40720662234904,interesse,1,,,,,,,,,,neutral,[-230.0],[-36.0],[1],[0],[0],[3.5459838804176798],['interesse_1'],0.010704926914058888,None,0.9814162888463948,soddisfazione,256.5365471039166,invidia,1,[211.0],[8.0],[1],[0],[0],[3.333064214969454],['invidia_5'],0.009248327769910247,None,,,03,001,healthy,24,f,18,1,benedetta,2022-03-16_09h49.28.323,pilot_AIM1,2022.1.1,85.0016864231905,
,,stimoli/01.full/M02-Surprise-Face Forward.wmv,surprised,full,maschio,3,6,720,576,,,,,,,,,,,,,,,,,1,0,1,0,,,,,0,11,11,50,-75.27702493824978,sorpresa,141.65097952361643,sorpresa,4,,,,,,,,,,surprised,[-220.0],[-137.0],[1],[0],[0],[1.3578266244144288],['sorpresa_4'],0.010682847047974064,None,3.6431282122060358,soddisfazione,258.7856255668,euforia,1,"[-233.0, 278.0]","[37.0, 34.0]","[1, 1]","[0, 0]","[0, 0]","[2.7799222980725062, 4.967960514800325]",['euforia_5'],0.009031369089370855,None,,,03,001,healthy,24,f,18,1,benedetta,2022-03-16_09h49.28.323,pilot_AIM1,2022.1.1,85.0016864231905,
,,stimoli/01.full/M02-Anger-Face Forward.wmv,angry,full,maschio,3,6,720,576,,,,,,,,,,,,,,,,,1,0,1,0,,,,,0,12,12,34,103.17255342332689,rabbia,144.81022063376605,rabbia,4,,,,,,,,,,angry,[-289.0],[141.0],[1],[0],[0],[1.922696470005576],['rabbia_4'],0.010602207538340735,None,0.22512960569376392,soddisfazione,256.5014619841376,neutral,1,[253.0],[2.0],[1],[0],[0],[7.367320966688567],['neutral_5'],0.008533132118373032,None,,,03,001,healthy,24,f,18,1,benedetta,2022-03-16_09h49.28.323,pilot_AIM1,2022.1.1,85.0016864231905,
,,stimoli/02.subtle/JM1_Surprise.wmv,surprised,subtle,maschio,7,10,1646,926,,,,,,,,,,,,,,,,,1,0,1,0,,,,,0,13,13,22,-76.78367593620939,sorpresa,135.5912976558599,sorpresa,4,,,,,,,,,,surprised,[-225.0],[-132.0],[1],[0],[0],[5.581677103402853],['sorpresa_4'],0.0108806058456139,None,-6.511019443400645,soglievo,264.19878879359004,interesse,2,[296.0],[-63.0],[1],[0],[0],[1.8620417987858673],['interesse_6'],0.008801930483969045,None,,,03,001,healthy,24,f,18,1,benedetta,2022-03-16_09h49.28.323,pilot_AIM1,2022.1.1,85.0016864231905,
,,stimoli/02.subtle/JM2_Disgust.wmv,disgusted,subtle,maschio,8,10,1646,926,,,,,,,,,,,,,,,,,1,0,1,0,,,,,0,14,14,11,145.3590524880837,disgusto,66.85057965343307,disgusto,2,,,,,,,,,,disgusted,[-311.0],[38.0],[1],[0],[0],[6.357987583435261],['disgusto_2'],0.010691486995256128,None,-11.242180302785526,soglievo,274.184244623939,tristezza,3,[232.0],[-97.0],[1],[0],[0],[1.720724577994588],['tristezza_7'],0.008703371083356615,None,,,03,001,healthy,24,f,18,1,benedetta,2022-03-16_09h49.28.323,pilot_AIM1,2022.1.1,85.0016864231905,
,,stimoli/01.full/F03-Surprise-Face Forward.wmv,surprised,full,femmina,2,6,720,576,,,,,,,,,,,,,,,,,1,0,1,0,,,,,0,15,15,49,-81.37264685593476,sorpresa,146.6594695203825,sorpresa,4,,,,,,,,,,surprised,[-234.0],[-145.0],[1],[0],[0],[4.181184818396105],['sorpresa_4'],0.010420768641779432,None,-8.401103522361234,soglievo,269.68685544534793,interesse,3,[306.0],[-83.0],[1],[0],[0],[3.697171121199972],['interesse_7'],0.008928649713652703,None,,,03,001,healthy,24,f,18,1,benedetta,2022-03-16_09h49.28.323,pilot_AIM1,2022.1.1,85.0016864231905,
,,stimoli/01.full/M03-Anger-Face Forward.wmv,angry,full,maschio,4,6,720,576,,,,,,,,,,,,,,,,,1,0,1,0,,,,,0,16,16,35,103.07912378006682,rabbia,101.6366075781753,rabbia,3,,,,,,,,,,angry,[-279.0],[99.0],[1],[0],[0],[2.275556404616964],['rabbia_3'],0.010518048050471407,None,0.8550973962667232,soddisfazione,256.51120833211166,invidia,1,[213.0],[7.0],[1],[0],[0],[6.4500615836259385],['invidia_5'],0.008646731427688792,None,,,03,001,healthy,24,f,18,1,benedetta,2022-03-16_09h49.28.323,pilot_AIM1,2022.1.1,85.0016864231905,
,,stimoli/01.full/F01-Fear-Face Forward.wmv,fear,full,femmina,1,6,720,576,,,,,,,,,,,,,,,,,1,0,1,0,,,,,0,17,17,28,-123.04812486997523,paura,99.02019995940222,paura,3,,,,,,,,,,fear,[-310.0],[-83.0],[1],[0],[0],[3.263774716249827],['paura_3'],0.010607967503801774,None,-14.846631225948014,soglievo,294.70663379028304,sorpresa,4,[291.0],[-145.0],[1],[0],[0],[2.920883681027135],['sorpresa_8'],0.0087686506863065,None,,,03,001,healthy,24,f,18,1,benedetta,2022-03-16_09h49.28.323,pilot_AIM1,2022.1.1,85.0016864231905,
,,stimoli/02.subtle/JF2_Anger.wmv,angry,subtle,femmina,6,9,1646,926,,,,,,,,,,,,,,,,,1,0,1,0,,,,,0,18,18,5,100.35332004392944,rabbia,105.72133181151285,rabbia,3,,,,,,,,,,angry,[-275.0],[104.0],[1],[0],[0],[1.628696017528],['rabbia_3'],0.010791966385113483,None,10.473197931913917,soddisfazione,269.4772717688822,disprezzo,3,[193.0],[83.0],[1],[0],[0],[2.4267404454180905],['disprezzo_7'],0.008879370013346488,None,,,03,001,healthy,24,f,18,1,benedetta,2022-03-16_09h49.28.323,pilot_AIM1,2022.1.1,85.0016864231905,
,,stimoli/02.subtle/JF1_Disgust.wmv,disgusted,subtle,femmina,5,10,1646,926,,,,,,,,,,,,,,,,,1,0,1,0,,,,,0,19,19,8,147.19303447550695,disgusto,143.96180048887967,disgusto,4,,,,,,,,,,disgusted,[-377.0],[78.0],[1],[0],[0],[1.6285756982597377],['disgusto_4'],0.01079132638824376,None,-7.6185464875689375,soglievo,264.0454506330302,paura,2,[215.0],[-63.0],[1],[0],[0],[4.12085750518645],['paura_6'],0.008894409922049817,None,,,03,001,healthy,24,f,18,1,benedetta,2022-03-16_09h49.28.323,pilot_AIM1,2022.1.1,85.0016864231905,
,,stimoli/02.subtle/JF2_Happiness.wmv,happy,subtle,femmina,6,9,1646,926,,,,,,,,,,,,,,,,,1,0,1,0,,,,,0,20,20,13,31.690821304599524,gioia,135.15176654413364,gioia,4,,,,,,,,,,happy,[-141.0],[71.0],[1],[0],[0],[2.12233397620912],['gioia_4'],0.010679007071303204,None,-13.86102756302115,soglievo,288.9775077752592,sorpresa,4,[283.0],[-133.0],[1],[0],[0],[1.356653831544918],['sorpresa_8'],0.009258247709567513,None,,,03,001,healthy,24,f,18,1,benedetta,2022-03-16_09h49.28.323,pilot_AIM1,2022.1.1,85.0016864231905,
,,stimoli/02.subtle/JF1_Happiness.wmv,happy,subtle,femmina,5,10,1646,926,,,,,,,,,,,,,,,,,1,0,1,0,,,,,0,21,21,12,-10.980650010173543,soglievo,136.49908424601244,sollievo,4,,,,,,,,,,happy,[-122.0],[-26.0],[1],[0],[0],[1.558042047104209],['sollievo_4'],0.010759326583411166,None,5.691427465187857,soddisfazione,263.34957755804356,gioia,3,[336.0],[59.0],[1],[0],[0],[2.63850939786289],['gioia_7'],0.008860490127972298,None,,,03,001,healthy,24,f,18,1,benedetta,2022-03-16_09h49.28.323,pilot_AIM1,2022.1.1,85.0016864231905,
,,stimoli/01.full/M03-Disgust-Face Forward.wmv,disgusted,full,maschio,4,6,720,576,,,,,,,,,,,,,,,,,1,0,1,0,,,,,0,22,22,39,100.69221215528404,rabbia,145.52662986546483,rabbia,4,,,,,,,,,,disgusted,[-283.0],[143.0],[1],[0],[0],[1.3576624654124316],['rabbia_4'],0.010731166754339938,None,7.961750891008094,soddisfazione,263.26602515326584,disgusto,3,[173.0],[60.0],[1],[0],[0],[3.686027828950955],['disgusto_7'],0.009288327526974172,None,,,03,001,healthy,24,f,18,1,benedetta,2022-03-16_09h49.28.323,pilot_AIM1,2022.1.1,85.0016864231905,
,,stimoli/02.subtle/JM2_Sadness.wmv,sad,subtle,maschio,8,10,1646,926,,,,,,,,,,,,,,,,,1,0,1,0,,,,,0,23,23,19,-168.91743053697036,colpa,98.84331034521254,colpa,3,,,,,,,,,,sad,[-353.0],[-19.0],[1],[0],[0],[2.546203079085444],['colpa_3'],0.010745566666628292,None,-4.805601243468985,soglievo,259.1833327974621,vergogna,2,[196.0],[-38.0],[1],[0],[0],[3.2032202044210862],['vergogna_6'],0.00879777050931807,None,,,03,001,healthy,24,f,18,1,benedetta,2022-03-16_09h49.28.323,pilot_AIM1,2022.1.1,85.0016864231905,
,,stimoli/02.subtle/JM1_Sadness.wmv,sad,subtle,maschio,7,10,1646,926,,,,,,,,,,,,,,,,,1,0,1,0,,,,,0,24,24,18,79.23424445525708,orgoglio,144.5441109142811,orgoglio,4,,,,,,,,,,sad,[-229.0],[142.0],[1],[0],[0],[2.1934445838569445],['orgoglio_4'],0.010775646484489698,None,10.058703255572256,soddisfazione,268.5721504549569,disprezzo,3,[195.0],[80.0],[1],[0],[0],[1.7207088980899243],['disprezzo_7'],0.008729610924092412,None,,,03,001,healthy,24,f,18,1,benedetta,2022-03-16_09h49.28.323,pilot_AIM1,2022.1.1,85.0016864231905,
,,stimoli/02.subtle/JM2_Anger.wmv,angry,subtle,maschio,8,10,1646,926,,,,,,,,,,,,,,,,,1,0,1,0,,,,,0,25,25,7,-171.41637851988605,colpa,107.20074626605917,colpa,3,,,,,,,,,,angry,[-362.0],[-16.0],[1],[0],[0],[5.864023866734897],['colpa_3'],0.010683807042369153,None,3.2464918460540924,soddisfazione,257.84685377176896,disgusto,1,[220.0],[27.0],[1],[0],[0],[5.603054253429946],['disgusto_5'],0.008665291315082868,None,,,03,001,healthy,24,f,18,1,benedetta,2022-03-16_09h49.28.323,pilot_AIM1,2022.1.1,85.0016864231905,
,,stimoli/02.subtle/JM1_Anger.wmv,angry,subtle,maschio,7,10,1646,926,,,,,,,,,,,,,,,,,1,0,1,0,,,,,0,26,26,6,103.64291477599008,rabbia,105.99056561788883,rabbia,3,,,,,,,,,,angry,[-281.0],[103.0],[1],[0],[0],[1.6285657783200804],['rabbia_3'],0.010737246716871596,None,3.0418421566183724,soddisfazione,257.2508503387307,invidia,3,[158.0],[22.0],[1],[0],[0],[1.6503333259734063],['invidia_7'],0.008957449538684159,None,,,03,001,healthy,24,f,18,1,benedetta,2022-03-16_09h49.28.323,pilot_AIM1,2022.1.1,85.0016864231905,
,,stimoli/02.subtle/JF1_Neutral.wmv,neutral,subtle,femmina,5,10,1646,926,,,,,,,,,,,,,,,,,1,0,1,0,,,,,0,27,27,24,-54.21102654081667,interesse,106.01886624558857,interesse,3,,,,,,,,,,neutral,[-194.0],[-86.0],[1],[0],[0],[3.5349490675098423],['interesse_3'],0.010972125289754331,None,1.6905305277135703,soddisfazione,257.18670261115756,soddisfazione,2,[320.0],[17.0],[1],[0],[0],[2.7796464597495287],['soddisfazione_6'],0.00869921110870564,None,,,03,001,healthy,24,f,18,1,benedetta,2022-03-16_09h49.28.323,pilot_AIM1,2022.1.1,85.0016864231905,
,,stimoli/02.subtle/JM2_Happiness.wmv,happy,subtle,maschio,8,10,1646,926,,,,,,,,,,,,,,,,,1,0,1,0,,,,,0,28,28,15,-11.55100726252528,soglievo,139.83204210766573,sollievo,4,,,,,,,,,,happy,[-119.0],[-28.0],[1],[0],[0],[2.6169108091826274],['sollievo_4'],0.010864605942970229,None,1.8902637151598711,soddisfazione,257.46067660906976,soddisfazione,3,[350.0],[20.0],[1],[0],[0],[4.120793825573401],['soddisfazione_7'],0.008895369915990159,None,,,03,001,healthy,24,f,18,1,benedetta,2022-03-16_09h49.28.323,pilot_AIM1,2022.1.1,85.0016864231905,
,,stimoli/01.full/F01-Disgust-Face Forward.wmv,disgusted,full,femmina,1,6,720,576,,,,,,,,,,,,,,,,,1,0,1,0,,,,,0,29,29,36,125.9670303010289,disprezzo,139.61733416735902,disprezzo,4,,,,,,,,,,disgusted,[-338.0],[113.0],[1],[0],[0],[1.6992034288432478],['disprezzo_4'],0.010800286333960685,None,7.305759533310827,soddisfazione,262.17169946430147,disgusto,3,[173.0],[55.0],[1],[0],[0],[2.497280496534586],['disgusto_7'],0.008917769779600349,None,,,03,001,healthy,24,f,18,1,benedetta,2022-03-16_09h49.28.323,pilot_AIM1,2022.1.1,85.0016864231905,
,,stimoli/02.subtle/JM1_Neutral.wmv,neutral,subtle,maschio,7,10,1646,926,,,,,,,,,,,,,,,,,1,0,1,0,,,,,0,30,30,26,-55.40771131249006,interesse,70.45565981523414,interesse,2,,,,,,,,,,neutral,[-216.0],[-58.0],[1],[0],[0],[2.0520793633572794],['interesse_2'],0.010776606477975292,None,1.9480850065149493,soddisfazione,256.7995327098552,invidia,2,[185.0],[15.0],[1],[0],[0],[4.5445150893483515],['invidia_6'],0.008913929803384235,None,,,03,001,healthy,24,f,18,1,benedetta,2022-03-16_09h49.28.323,pilot_AIM1,2022.1.1,85.0016864231905,
,,stimoli/02.subtle/JM2_Fear.wmv,fear,subtle,maschio,8,10,1646,926,,,,,,,,,,,,,,,,,1,0,1,0,,,,,0,31,31,3,-130.47523152716582,paura,98.59513172565875,paura,3,,,,,,,,,,fear,[-320.0],[-75.0],[1],[0],[0],[4.3111715480768],['paura_3'],0.01079324637657919,None,-10.267562739190014,soglievo,274.6361228971892,sorpresa,3,[285.0],[-98.0],[1],[0],[0],[3.12096886450945],['sorpresa_7'],0.008936969662954652,None,,,03,001,healthy,24,f,18,1,benedetta,2022-03-16_09h49.28.323,pilot_AIM1,2022.1.1,85.0016864231905,
,,stimoli/01.full/F03-Disgust-Face Forward.wmv,disgusted,full,femmina,2,6,720,576,,,,,,,,,,,,,,,,,1,0,1,0,,,,,0,32,32,37,104.03624346792648,rabbia,98.95453501482385,rabbia,3,,,,,,,,,,disgusted,[-280.0],[96.0],[1],[0],[0],[4.664297401071508],['rabbia_3'],0.010886685808600305,None,-7.5344666497303985,soglievo,264.83013423702374,tristezza,2,[243.0],[-66.0],[1],[0],[0],[7.085507320115539],['tristezza_6'],0.0086851311943974,None,,,03,001,healthy,24,f,18,1,benedetta,2022-03-16_09h49.28.323,pilot_AIM1,2022.1.1,85.0016864231905,
,,stimoli/01.full/F03-Neutral-Face Forward.wmv,neutral,full,femmina,2,6,720,576,,,,,,,,,,,,,,,,,1,0,1,0,,,,,0,33,33,53,-57.43956201884656,interesse,98.47842403288143,interesse,3,,,,,,,,,,neutral,[-203.0],[-83.0],[1],[0],[0],[3.2638118360241606],['interesse_3'],0.010739806701622001,None,1.179163432832101,soddisfazione,256.9182749436093,soddisfazione,2,[327.0],[12.0],[1],[0],[0],[2.1444269618841645],['soddisfazione_6'],0.008838730260322336,None,,,03,001,healthy,24,f,18,1,benedetta,2022-03-16_09h49.28.323,pilot_AIM1,2022.1.1,85.0016864231905,
,,stimoli/01.full/F01-Sadness-Face Forward.wmv,sad,full,femmina,1,6,720,576,,,,,,,,,,,,,,,,,1,0,1,0,,,,,0,34,34,44,-100.69221215528404,tristezza,145.52662986546483,tristezza,4,,,,,,,,,,sad,[-283.0],[-143.0],[1],[0],[0],[2.4758684667194757],['tristezza_4'],0.010940125483557495,None,-7.0804744199274,soglievo,263.12734559524597,paura,2,[219.0],[-59.0],[1],[0],[0],[3.2737791354229557],['paura_6'],0.008784010592989944,None,,,03,001,healthy,24,f,18,1,benedetta,2022-03-16_09h49.28.323,pilot_AIM1,2022.1.1,85.0016864231905,
,,stimoli/02.subtle/JM2_Surprise.wmv,surprised,subtle,maschio,8,10,1646,926,,,,,,,,,,,,,,,,,1,0,1,0,,,,,0,35,35,23,-81.68487424320811,sorpresa,131.38112497615478,sorpresa,4,,,,,,,,,,surprised,[-237.0],[-130.0],[1],[0],[0],[3.605142560733384],['sorpresa_4'],0.01077660647843004,None,5.385703940601999,soddisfazione,262.69754471635247,gioia,3,[338.0],[56.0],[1],[0],[0],[2.9208408012877953],['gioia_7'],0.008847050209624285,None,,,03,001,healthy,24,f,18,1,benedetta,2022-03-16_09h49.28.323,pilot_AIM1,2022.1.1,85.0016864231905,
,,stimoli/02.subtle/JF2_Disgust.wmv,disgusted,subtle,femmina,6,10,1646,926,,,,,,,,,,,,,,,,,1,0,1,0,,,,,0,36,36,9,122.43976290315445,disprezzo,139.8177385026664,disprezzo,4,,,,,,,,,,disgusted,[-331.0],[118.0],[1],[0],[0],[1.6285222585847805],['disprezzo_4'],0.010777566472370381,None,2.7791668640720806,soddisfazione,257.0836439760414,invidia,3,[156.0],[20.0],[1],[0],[0],[1.6503704457477397],['invidia_7'],0.008936009669014311,None,,,03,001,healthy,24,f,18,1,benedetta,2022-03-16_09h49.28.323,pilot_AIM1,2022.1.1,85.0016864231905,
,,stimoli/01.full/F01-Anger-Face Forward.wmv,angry,full,femmina,1,6,720,576,,,,,,,,,,,,,,,,,1,0,1,0,,,,,0,37,37,32,99.74364128703716,rabbia,100.44899203078147,rabbia,3,,,,,,,,,,angry,[-273.0],[99.0],[1],[0],[0],[2.6284080192790498],['rabbia_3'],0.010654047223397356,None,-7.394008642598279,soglievo,265.38274246830747,sorpresa,2,[268.0],[-68.0],[1],[0],[0],[4.897542062944012],['sorpresa_6'],0.008989769341951614,None,,,03,001,healthy,24,f,18,1,benedetta,2022-03-16_09h49.28.323,pilot_AIM1,2022.1.1,85.0016864231905,
,,stimoli/01.full/F03-Anger-Face Forward.wmv,angry,full,femmina,2,6,720,576,,,,,,,,,,,,,,,,,1,0,1,0,,,,,0,38,38,33,102.82878287145543,rabbia,103.58571330062848,rabbia,3,,,,,,,,,,angry,[-279.0],[101.0],[1],[0],[0],[5.793363496350139],['rabbia_3'],0.010851806020582444,None,-0.3370301098578076,soglievo,256.5131575572684,neutral,1,[254.0],[-3.0],[1],[0],[0],[1.7799450179340965],['neutral_5'],0.00913600845296969,None,,,03,001,healthy,24,f,18,1,benedetta,2022-03-16_09h49.28.323,pilot_AIM1,2022.1.1,85.0016864231905,
,,stimoli/01.full/F01-Joy-Face Forward.wmv,happy,full,femmina,1,6,720,576,,,,,,,,,,,,,,,,,1,0,1,0,,,,,0,39,39,40,36.18477897677684,gioia,133.80956617521784,gioia,4,,,,,,,,,,happy,[-148.0],[79.0],[1],[0],[0],[2.3461780552374876],['gioia_4'],0.010725726787768508,None,2.0621323002958487,soddisfazione,257.633460559765,soddisfazione,3,[355.0],[22.0],[1],[0],[0],[3.6152260194257906],['soddisfazione_7'],0.0090515289666655,None,,,03,001,healthy,24,f,18,1,benedetta,2022-03-16_09h49.28.323,pilot_AIM1,2022.1.1,85.0016864231905,
,,stimoli/01.full/M03-Surprise-Face Forward.wmv,surprised,full,maschio,4,6,720,576,,,,,,,,,,,,,,,,,1,0,1,0,,,,,0,40,40,51,-81.34745820888527,sorpresa,139.5886814895821,sorpresa,4,,,,,,,,,,surprised,[-235.0],[-138.0],[1],[0],[0],[2.2048582744619125],['sorpresa_4'],0.010682847047974064,None,-7.6929856450936605,soglievo,265.0754609540461,tristezza,2,[240.0],[-67.0],[1],[0],[0],[2.556229578124203],['tristezza_6'],0.0088963299099305,None,,,03,001,healthy,24,f,18,1,benedetta,2022-03-16_09h49.28.323,pilot_AIM1,2022.1.1,85.0016864231905,
,,stimoli/01.full/M03-Neutral-Face Forward.wmv,neutral,full,maschio,4,6,720,576,,,,,,,,,,,,,,,,,1,0,1,0,,,,,0,41,41,55,-59.18429424827082,interesse,66.37017402418047,interesse,2,,,,,,,,,,neutral,[-222.0],[-57.0],[1],[0],[0],[2.6990517497652036],['interesse_2'],0.010755806604265672,None,1.3493298810874113,soddisfazione,256.64761834079036,invidia,1,[211.0],[11.0],[1],[0],[0],[10.403395307356732],['invidia_5'],0.008872010058439628,None,,,03,001,healthy,24,f,18,1,benedetta,2022-03-16_09h49.28.323,pilot_AIM1,2022.1.1,85.0016864231905,
,,stimoli/02.subtle/JF2_Neutral.wmv,neutral,subtle,femmina,6,9,1646,926,,,,,,,,,,,,,,,,,1,0,1,0,,,,,0,42,42,25,-147.3390872783262,vergogna,46.32493928760188,vergogna,1,,,,,,,,,,neutral,[-295.0],[-25.0],[1],[0],[0],[6.993497319535891],['vergogna_1'],0.010732766745150002,None,2.89857679928171,soddisfazione,257.54611237601705,disgusto,1,[218.0],[24.0],[1],[0],[0],[7.144365842255866],['disgusto_5'],0.008632011517420324,None,,,03,001,healthy,24,f,18,1,benedetta,2022-03-16_09h49.28.323,pilot_AIM1,2022.1.1,85.0016864231905,
,,stimoli/01.full/M03-Joy-Face Forward.wmv,happy,full,maschio,4,6,720,576,,,,,,,,,,,,,,,,,1,0,1,0,,,,,0,43,43,43,35.67640822186198,gioia,144.03124660989366,gioia,4,,,,,,,,,,happy,[-139.0],[84.0],[1],[0],[0],[1.6287206573783806],['gioia_4'],0.010828766161012027,None,-10.33327639341579,soglievo,274.2644709035423,sorpresa,3,[276.0],[-97.0],[1],[0],[0],[1.7914803077997021],['sorpresa_7'],0.008829450317534793,None,,,03,001,healthy,24,f,18,1,benedetta,2022-03-16_09h49.28.323,pilot_AIM1,2022.1.1,85.0016864231905,
,,stimoli/02.subtle/JM1_Happiness.wmv,happy,subtle,maschio,7,10,1646,926,,,,,,,,,,,,,,,,,1,0,1,0,,,,,0,44,44,14,-78.57881372500071,sorpresa,101.0,sorpresa,3,,,,,,,,,,happy,[-236.0],[-99.0],[1],[0],[0],[2.404731619231825],['sorpresa_3'],0.010594527585453761,None,5.787242964031514,soddisfazione,263.5754161525691,gioia,3,[336.0],[60.0],[1],[0],[0],[3.050565772560276],['gioia_7'],0.009122888533056539,None,,,03,001,healthy,24,f,18,1,benedetta,2022-03-16_09h49.28.323,pilot_AIM1,2022.1.1,85.0016864231905,
,,stimoli/02.subtle/JF1_Fear.wmv,fear,subtle,femmina,5,10,1646,926,,,,,,,,,,,,,,,,,1,0,1,0,,,,,0,45,45,0,-126.2538377374448,paura,148.8086019019062,paura,4,,,,,,,,,,fear,[-344.0],[-120.0],[1],[0],[0],[3.6050689611806774],['paura_4'],0.010755486606740305,None,-1.6764710468067516,soglievo,256.58137110866016,colpa,3,[154.0],[-12.0],[1],[0],[0],[1.2971697132079498],['colpa_7'],0.0086505714048144,None,,,03,001,healthy,24,f,18,1,benedetta,2022-03-16_09h49.28.323,pilot_AIM1,2022.1.1,85.0016864231905,
,,stimoli/02.subtle/JF1_Surprise.wmv,surprised,subtle,femmina,5,10,1646,926,,,,,,,,,,,,,,,,,1,0,1,0,,,,,0,46,46,20,-81.28526712513884,sorpresa,138.6001443000692,sorpresa,4,,,,,,,,,,surprised,[-235.0],[-137.0],[1],[0],[0],[2.546431557696451],['sorpresa_4'],0.01087324589070704,None,8.776373585625638,soddisfazione,271.2821409529201,euforia,3,[314.0],[88.0],[1],[0],[0],[1.5797967948356018],['euforia_7'],0.008968969468696741,None,,,03,001,healthy,24,f,18,1,benedetta,2022-03-16_09h49.28.323,pilot_AIM1,2022.1.1,85.0016864231905,
,,stimoli/02.subtle/JM1_Fear.wmv,fear,subtle,maschio,7,10,1646,926,,,,,,,,,,,,,,,,,1,0,1,0,,,,,0,47,47,2,-124.69515353123397,paura,142.30249470757707,paura,4,,,,,,,,,,fear,[-337.0],[-117.0],[1],[0],[0],[2.122629974409847],['paura_4'],0.010684767036764242,None,-14.257841854019802,soglievo,291.8013022589173,sorpresa,4,[291.0],[-139.0],[1],[0],[0],[4.050149775089267],['sorpresa_8'],0.00884193024103297,None,,,03,001,healthy,24,f,18,1,benedetta,2022-03-16_09h49.28.323,pilot_AIM1,2022.1.1,85.0016864231905,
,,stimoli/02.subtle/JF1_Anger.wmv,angry,subtle,femmina,5,10,1646,926,,,,,,,,,,,,,,,,,1,0,1,0,,,,,0,48,48,4,99.64804531609816,rabbia,101.43470806385751,rabbia,3,,,,,,,,,,angry,[-273.0],[100.0],[1],[0],[0],[1.4170240244939123],['rabbia_3'],0.010856605991648394,None,-7.065749983162804,soglievo,263.12924580897504,paura,2,[220.0],[-59.0],[1],[0],[0],[3.273668736093896],['paura_6'],0.00892480973743659,None,,,03,001,healthy,24,f,18,1,benedetta,2022-03-16_09h49.28.323,pilot_AIM1,2022.1.1,85.0016864231905,
,,stimoli/01.full/M02-Joy-Face Forward.wmv,happy,full,maschio,3,6,720,576,,,,,,,,,,,,,,,,,1,0,1,0,,,,,0,49,49,42,38.29016319224307,gioia,145.24462124292245,gioia,4,,,,,,,,,,happy,[-142.0],[90.0],[1],[0],[0],[1.6285078586724921],['gioia_4'],0.010796766355724685,None,2.173549033378074,soddisfazione,257.71107853563456,soddisfazione,3,[350.0],[23.0],[1],[0],[0],[2.074128189300609],['soddisfazione_7'],0.00905728893212654,None,,,03,001,healthy,24,f,18,1,benedetta,2022-03-16_09h49.28.323,pilot_AIM1,2022.1.1,85.0016864231905,
,,stimoli/02.subtle/JM2_Neutral.wmv,neutral,subtle,maschio,8,10,1646,926,,,,,,,,,,,,,,,,,1,0,1,0,,,,,0,50,50,27,-102.52880770915151,tristezza,46.09772228646444,tristezza,1,,,,,,,,,,neutral,[-266.0],[-45.0],[1],[0],[0],[3.1111609241415863],['tristezza_1'],0.010849886033156508,None,-5.824234094620076,soglievo,262.6118809193522,interesse,2,[293.0],[-56.0],[1],[0],[0],[2.5675575092500367],['interesse_6'],0.008576651854582451,None,,,03,001,healthy,24,f,18,1,benedetta,2022-03-16_09h49.28.323,pilot_AIM1,2022.1.1,85.0016864231905,
,,stimoli/02.subtle/JF2_Sadness.wmv,sad,subtle,femmina,6,8,1646,926,,,,,,,,,,,,,,,,,1,0,1,0,,,,,0,51,51,17,-107.21607358779072,tristezza,148.66068747318505,tristezza,4,,,,,,,,,,sad,[-300.0],[-142.0],[1],[0],[0],[1.6286489778144642],['tristezza_4'],0.010773406497719407,None,-2.362805907663559,soglievo,256.86767021172597,colpa,3,[156.0],[-17.0],[1],[0],[0],[1.5088461862151235],['colpa_7'],0.008738250871829223,None,,,03,001,healthy,24,f,18,1,benedetta,2022-03-16_09h49.28.323,pilot_AIM1,2022.1.1,85.0016864231905,
,,stimoli/01.full/M03-Fear-Face Forward.wmv,fear,full,maschio,4,6,720,576,,,,,,,,,,,,,,,,,1,0,1,0,,,,,0,52,52,31,149.13319054886293,disgusto,101.35580891098448,disgusto,3,,,,,,,,,,fear,[-343.0],[52.0],[1],[0],[0],[2.263702716687476],['disgusto_3'],0.010802206322750862,None,-7.185280096874025,soglievo,263.114043714888,paura,2,[212.0],[-59.0],[1],[0],[0],[3.050707531698208],['paura_6'],0.009095368700400286,None,,,03,001,healthy,24,f,18,1,benedetta,2022-03-16_09h49.28.323,pilot_AIM1,2022.1.1,85.0016864231905,
,,stimoli/02.subtle/JF2_Fear.wmv,fear,subtle,femmina,6,10,1646,926,,,,,,,,,,,,,,,,,1,0,1,0,,,,,0,53,53,1,-123.14022087905204,paura,144.5060552364502,paura,4,,,,,,,,,,fear,[-335.0],[-121.0],[1],[0],[0],[1.6285382584874242],['paura_4'],0.010870045909996406,None,-9.843249550740747,soglievo,272.88275870783775,sorpresa,3,[280.0],[-93.0],[1],[0],[0],[1.9918227697176007],['sorpresa_7'],0.009207048021380615,None,,,03,001,healthy,24,f,18,1,benedetta,2022-03-16_09h49.28.323,pilot_AIM1,2022.1.1,85.0016864231905,
,,stimoli/01.full/M03-Sadness-Face Forward.wmv,sad,full,maschio,4,6,720,576,,,,,,,,,,,,,,,,,1,0,1,0,,,,,0,54,54,47,-105.0089136766587,tristezza,142.87407042567241,tristezza,4,,,,,,,,,,sad,[-293.0],[-138.0],[1],[0],[0],[1.346391813937771],['tristezza_4'],0.010822046202065394,None,-6.828533719564892,soglievo,262.68802789621,paura,2,[220.0],[-57.0],[1],[0],[0],[5.6737827834008385],['paura_6'],0.008754890770887869,None,,,03,001,healthy,24,f,18,1,benedetta,2022-03-16_09h49.28.323,pilot_AIM1,2022.1.1,85.0016864231905,
,,stimoli/01.full/F03-Fear-Face Forward.wmv,fear,full,femmina,2,6,720,576,,,,,,,,,,,,,,,,,1,0,1,0,,,,,0,55,55,29,-126.02737338510362,paura,149.61617559608987,paura,4,,,,,,,,,,fear,[-344.0],[-121.0],[1],[0],[0],[1.911045020846359],['paura_4'],0.010768926525088318,None,-0.1116875378979654,soglievo,256.50341128335896,neutral,1,[257.0],[-1.0],[1],[0],[0],[4.614932901208249],['neutral_5'],0.008816970393127121,None,,,03,001,healthy,24,f,18,1,benedetta,2022-03-16_09h49.28.323,pilot_AIM1,2022.1.1,85.0016864231905,
