emotion_practice,emotion_comp,file,file_emotion,file_emotion_level,file_gender,file_id,file_duration,size_w,size_h,practice.thisRepN,practice.thisTrialN,practice.thisN,practice.thisIndex,istr_loop_practice.thisRepN,istr_loop_practice.thisTrialN,istr_loop_practice.thisN,istr_loop_practice.thisIndex,loop_emotion_identication.thisRepN,loop_emotion_identication.thisTrialN,loop_emotion_identication.thisN,loop_emotion_identication.thisIndex,loop_practice.thisRepN,loop_practice.thisTrialN,loop_practice.thisN,loop_practice.thisIndex,random_by_pt_num.thisRepN,random_by_pt_num.thisTrialN,random_by_pt_num.thisN,random_by_pt_num.thisIndex,loop_itr_exp.thisRepN,loop_itr_exp.thisTrialN,loop_itr_exp.thisN,loop_itr_exp.thisIndex,loop_exp.thisRepN,loop_exp.thisTrialN,loop_exp.thisN,loop_exp.thisIndex,wheelresp_angle,wheelresp_cake,wheelresp_norm,wheelresp_emotion,wheelresp_level,Wheelresp.x,Wheelresp.y,Wheelresp.leftButton,Wheelresp.midButton,Wheelresp.rightButton,Wheelresp.time,Wheelresp.clicked_name,Wheelresp.started,Wheelresp.stopped,file_emotion,wheelresp.x,wheelresp.y,wheelresp.leftButton,wheelresp.midButton,wheelresp.rightButton,wheelresp.time,wheelresp.clicked_name,wheelresp.started,wheelresp.stopped,compound_angle,compound_cake,compound_norm,compound_emotion,compound_level,compound.x,compound.y,compound.leftButton,compound.midButton,compound.rightButton,compound.time,compound.clicked_name,compound.started,compound.stopped,kb_end_training.keys,kb_end_training.rt,participant,session,group,age,gender,education,practice,experimenter,date,expName,psychopyVersion,frameRate,
,,,,,,,,,,0,0,0,0,0,0,0,0,,,,,,,,,,,,,,,,,,,,,,,,,,,,,,,,,,,,,,,,,,,,,,,,,,,,,,,,,,,,,07,001,healthy,23,f,17,1,aurora,2022-03-31_08h56.38.359,pilot_AIM1,2022.1.1,84.90628412397484,
VERGOGNA,TRISTEZZA,,,,,,,,,0,0,0,0,,,,,0,0,0,9,,,,,,,,,,,,,,,,,-145.4160283075707,vergogna,195.5556186868585,Vergogna,4,[-161.0],[-111.0],[1],[0],[0],[2.3498599096595854],['Vergogna_4'],0.011147573370976716,None,,,,,,,,,,,,,,,,,,,,,,,,,,,07,001,healthy,23,f,17,1,aurora,2022-03-31_08h56.38.359,pilot_AIM1,2022.1.1,84.90628412397484,
EUFORIA,GIOIA,,,,,,,,,0,0,0,0,,,,,0,1,1,1,,,,,,,,,,,,,,,,,54.05788812861766,euforia,197.62590923257,Euforia,4,[116.0],[160.0],[1],[0],[0],[2.915599097879749],['Euforia_4'],0.011175475980053307,None,,,,,,,,,,,,,,,,,,,,,,,,,,,07,001,healthy,23,f,17,1,aurora,2022-03-31_08h56.38.359,pilot_AIM1,2022.1.1,84.90628412397484,
PAURA,NEUTRO,,,,,,,,,0,0,0,0,,,,,0,2,2,10,,,,,,,,,,,,,,,,,-122.58836141077342,paura,187.52333188166213,Paura,4,[-101.0],[-158.0],[1],[0],[0],[2.3043286247414017],['Paura_4'],0.01116264719416904,None,,,,,,,,,,,,,,,,,,,,,,,,,,,07,001,healthy,23,f,17,1,aurora,2022-03-31_08h56.38.359,pilot_AIM1,2022.1.1,84.90628412397484,
RABBIA,DISPREZZO,,,,,,,,,0,0,0,0,,,,,0,3,3,4,,,,,,,,,,,,,,,,,104.47981483436062,rabbia,187.97074240423694,Rabbia,4,[-47.0],[182.0],[1],[0],[0],[1.3820986482307944],['Rabbia_4'],0.011224225365822349,None,,,,,,,,,,,,,,,,,,,,,,,,,,,07,001,healthy,23,f,17,1,aurora,2022-03-31_08h56.38.359,pilot_AIM1,2022.1.1,84.90628412397484,
SOLLIEVO,GIOIA,,,,,,,,,0,0,0,0,,,,,0,4,4,15,,,,,,,,,,,,,,,,,-12.86710414001906,soglievo,202.07424378183381,Sollievo,4,[197.0],[-45.0],[1],[0],[0],[2.4562740459551833],['Sollievo_4'],0.011167137269353589,None,,,,,,,,,,,,,,,,,,,,,,,,,,,07,001,healthy,23,f,17,1,aurora,2022-03-31_08h56.38.359,pilot_AIM1,2022.1.1,84.90628412397484,
TRISTEZZA,NEUTRO,,,,,,,,,0,0,0,0,,,,,0,5,5,11,,,,,,,,,,,,,,,,,-97.88313931672974,tristezza,196.86035659827502,Tristezza,4,[-27.0],[-195.0],[1],[0],[0],[2.1710782722703925],['Tristezza_4'],0.011211717299715929,None,,,,,,,,,,,,,,,,,,,,,,,,,,,07,001,healthy,23,f,17,1,aurora,2022-03-31_08h56.38.359,pilot_AIM1,2022.1.1,84.90628412397484,
COLPA,VERGOGNA,,,,,,,,,0,0,0,0,,,,,0,6,6,8,,,,,,,,,,,,,,,,,-169.5861745290108,colpa,188.09837851507388,Colpa,4,[-185.0],[-34.0],[1],[0],[0],[1.770786160819057],['Colpa_4'],0.01116906158722486,None,,,,,,,,,,,,,,,,,,,,,,,,,,,07,001,healthy,23,f,17,1,aurora,2022-03-31_08h56.38.359,pilot_AIM1,2022.1.1,84.90628412397484,
SORPRESA,GIOIA,,,,,,,,,0,0,0,0,,,,,0,7,7,12,,,,,,,,,,,,,,,,,-77.13289585998093,sorpresa,202.07424378183381,Sorpresa,4,[45.0],[-197.0],[1],[0],[0],[2.573111891386361],['Sorpresa_4'],0.011209472262180498,None,,,,,,,,,,,,,,,,,,,,,,,,,,,07,001,healthy,23,f,17,1,aurora,2022-03-31_08h56.38.359,pilot_AIM1,2022.1.1,84.90628412397484,
ORGOGLIO,NEUTRO,,,,,,,,,0,0,0,0,,,,,0,8,8,3,,,,,,,,,,,,,,,,,80.49322801073431,orgoglio,211.91035840656775,Orgoglio,4,[35.0],[209.0],[1],[0],[0],[1.0756853458062778],['Orgoglio_4'],0.011193115560445221,None,,,,,,,,,,,,,,,,,,,,,,,,,,,07,001,healthy,23,f,17,1,aurora,2022-03-31_08h56.38.359,pilot_AIM1,2022.1.1,84.90628412397484,
SODDISFAZIONE,EUFORIA,,,,,,,,,0,0,0,0,,,,,0,9,9,0,,,,,,,,,,,,,,,,,8.829744667909067,soddisfazione,208.47062143141417,Soddisfazione,4,[206.0],[32.0],[1],[0],[0],[1.1464697747393302],['Soddisfazione_4'],0.011204340747781316,None,,,,,,,,,,,,,,,,,,,,,,,,,,,07,001,healthy,23,f,17,1,aurora,2022-03-31_08h56.38.359,pilot_AIM1,2022.1.1,84.90628412397484,
INVIDIA,NEUTRO,,,,,,,,,0,0,0,0,,,,,0,10,10,7,,,,,,,,,,,,,,,,,168.5134110060776,invidia,190.8219064992277,Invidia,4,[-187.0],[38.0],[1],[0],[0],[1.209409721910447],['Invidia_4'],0.011391641019827148,None,,,,,,,,,,,,,,,,,,,,,,,,,,,07,001,healthy,23,f,17,1,aurora,2022-03-31_08h56.38.359,pilot_AIM1,2022.1.1,84.90628412397484,
SPERANZA,NEUTRO,,,,,,,,,0,0,0,0,,,,,0,11,11,14,,,,,,,,,,,,,,,,,-34.08411756830693,speranza,201.6382900145704,Speranza,4,[167.0],[-113.0],[1],[0],[0],[2.6200662093632445],['Speranza_4'],0.011187663326495567,None,,,,,,,,,,,,,,,,,,,,,,,,,,,07,001,healthy,23,f,17,1,aurora,2022-03-31_08h56.38.359,pilot_AIM1,2022.1.1,84.90628412397484,
GIOIA,SODDISFAZIONE,,,,,,,,,0,0,0,0,,,,,0,12,12,2,,,,,,,,,,,,,,,,,34.66108945705895,gioia,212.7580785775243,Gioia,4,[175.0],[121.0],[1],[0],[0],[1.38214579401847],['Gioia_4'],0.011183814690639338,None,,,,,,,,,,,,,,,,,,,,,,,,,,,07,001,healthy,23,f,17,1,aurora,2022-03-31_08h56.38.359,pilot_AIM1,2022.1.1,84.90628412397484,
DISPREZZO,INVIDIA,,,,,,,,,0,0,0,0,,,,,0,13,13,5,,,,,,,,,,,,,,,,,127.53480914387859,disprezzo,206.81392603013947,Disprezzo,4,[-126.0],[164.0],[1],[0],[0],[1.6176014789024293],['Disprezzo_4'],0.01119792635495287,None,,,,,,,,,,,,,,,,,,,,,,,,,,,07,001,healthy,23,f,17,1,aurora,2022-03-31_08h56.38.359,pilot_AIM1,2022.1.1,84.90628412397484,
INTERESSE,SORPRESA,,,,,,,,,0,0,0,0,,,,,0,14,14,13,,,,,,,,,,,,,,,,,-53.0732048758252,interesse,201.40009930484146,Interesse,4,[121.0],[-161.0],[1],[0],[0],[2.268132205768552],['Interesse_4'],0.011220056010529333,None,,,,,,,,,,,,,,,,,,,,,,,,,,,07,001,healthy,23,f,17,1,aurora,2022-03-31_08h56.38.359,pilot_AIM1,2022.1.1,84.90628412397484,
DISGUSTO,NEUTRO,,,,,,,,,0,0,0,0,,,,,0,15,15,6,,,,,,,,,,,,,,,,,151.17619336160837,disgusto,192.89893727027115,Disgusto,4,[-169.0],[93.0],[1],[0],[0],[0.8991333513791915],['Disgusto_4'],0.0112001713924883,None,,,,,,,,,,,,,,,,,,,,,,,,,,,07,001,healthy,23,f,17,1,aurora,2022-03-31_08h56.38.359,pilot_AIM1,2022.1.1,84.90628412397484,
,,stimoli/02.subtle/JF1_Happiness.wmv,happy,subtle,femmina,5,10,1646,926,0,0,0,0,,,,,,,,,0,0,0,12,,,,,,,,,,,,,-5.5915577557571865,soglievo,143.68368035375485,sollievo,4,,,,,,,,,,happy,[-113.0],[-14.0],[1],[0],[0],[8.283063308774786],['sollievo_4'],0.010922428181288524,None,1.8965183032092885,soddisfazione,257.4567924914781,soddisfazione,3,[348.0],[20.0],[1],[0],[0],[3.278812490618975],['soddisfazione_7'],8.723574308078241e-05,None,,,07,001,healthy,23,f,17,1,aurora,2022-03-31_08h56.38.359,pilot_AIM1,2022.1.1,84.90628412397484,
,,stimoli/01.full/F01-Fear-Face Forward.wmv,fear,full,femmina,1,6,720,576,0,0,0,0,,,,,,,,,0,1,1,28,,,,,,,,,,,,,-124.7651972365768,paura,103.46980235798269,paura,3,,,,,,,,,,fear,[-315.0],[-85.0],[1],[0],[0],[6.339437804122326],['paura_3'],0.010573485209079081,None,0.0,soddisfazione,256.5014619841376,neutral,1,[257.0],[0.0],[1],[0],[0],[1.3006425938779103],['neutral_5'],0.0006128952387598474,None,,,07,001,healthy,23,f,17,1,aurora,2022-03-31_08h56.38.359,pilot_AIM1,2022.1.1,84.90628412397484,
,,stimoli/02.subtle/JM1_Neutral.wmv,neutral,subtle,maschio,7,10,1646,926,0,0,0,0,,,,,,,,,0,2,2,26,,,,,,,,,,,,,-90.0,tristezza,2.0,neutral,1,,,,,,,,,,neutral,[-256.0],[-2.0],[1],[0],[0],[3.5048403008606783],['neutral_1'],0.011003249531427173,None,0.1125652373213464,soddisfazione,256.49561399758863,neutral,1,[253.0],[1.0],[1],[0],[0],[1.403444464827885],['neutral_5'],0.0005837097513676781,None,,,07,001,healthy,23,f,17,1,aurora,2022-03-31_08h56.38.359,pilot_AIM1,2022.1.1,84.90628412397484,
,,stimoli/01.full/F03-Anger-Face Forward.wmv,angry,full,femmina,2,6,720,576,0,0,0,0,,,,,,,,,0,3,3,33,,,,,,,,,,,,,100.72885929801006,rabbia,96.6902270139025,rabbia,3,,,,,,,,,,angry,[-274.0],[95.0],[1],[0],[0],[2.7498271321121592],['rabbia_3'],0.010524735823196352,None,2.345744532465485,soddisfazione,256.87350972803716,invidia,3,[159.0],[17.0],[1],[0],[0],[3.973213495369464],['invidia_7'],0.0006122537995452149,None,,,07,001,healthy,23,f,17,1,aurora,2022-03-31_08h56.38.359,pilot_AIM1,2022.1.1,84.90628412397484,
,,stimoli/01.full/F01-Sadness-Face Forward.wmv,sad,full,femmina,1,6,720,576,,,,,,,,,,,,,,,,,0,0,0,0,,,,,0,0,0,44,-167.55489680326812,colpa,148.48905683584903,colpa,4,,,,,,,,,,sad,[-401.0],[-32.0],[1],[0],[0],[4.219569799498913],['colpa_4'],0.010566429377036002,None,-10.928713734889712,soglievo,273.4904020253727,tristezza,3,[236.0],[-95.0],[1],[0],[0],[1.7380945661111582],['tristezza_7'],0.011677402222289857,None,n,14.832172196575442,07,001,healthy,23,f,17,1,aurora,2022-03-31_08h56.38.359,pilot_AIM1,2022.1.1,84.90628412397484,
,,stimoli/01.full/F03-Sadness-Face Forward.wmv,sad,full,femmina,2,6,720,576,,,,,,,,,,,,,,,,,0,0,0,0,,,,,0,1,1,45,-100.16569487954268,tristezza,147.31259280862582,tristezza,4,,,,,,,,,,sad,[-282.0],[-145.0],[1],[0],[0],[2.6545070090071476],['tristezza_4'],0.010583427518099597,None,0.0,soddisfazione,256.4975633412528,neutral,1,[255.0],[0.0],[1],[0],[0],[2.2080588507716357],['neutral_5'],0.0006882643550625289,None,,,07,001,healthy,23,f,17,1,aurora,2022-03-31_08h56.38.359,pilot_AIM1,2022.1.1,84.90628412397484,
,,stimoli/02.subtle/JM1_Disgust.wmv,disgusted,subtle,maschio,7,10,1646,926,,,,,,,,,,,,,,,,,0,0,0,0,,,,,0,2,2,10,146.46395301569257,disgusto,103.1746092796091,disgusto,3,,,,,,,,,,disgusted,[-342.0],[57.0],[1],[0],[0],[2.571319710018088],['disgusto_3'],0.010984647792156466,None,0.1116875378979654,soddisfazione,256.50341128335896,neutral,1,[257.0],[1.0],[1],[0],[0],[1.620818296927382],['neutral_5'],0.0005766539190972253,None,,,07,001,healthy,23,f,17,1,aurora,2022-03-31_08h56.38.359,pilot_AIM1,2022.1.1,84.90628412397484,
,,stimoli/02.subtle/JF1_Neutral.wmv,neutral,subtle,femmina,5,10,1646,926,,,,,,,,,,,,,,,,,0,0,0,0,,,,,0,3,3,24,0.0,soddisfazione,0.0,neutral,1,,,,,,,,,,neutral,[-256.0],[0.0],[1],[0],[0],[1.619727529419606],['neutral_1'],0.010988175708234849,None,0.0,soddisfazione,256.4995126701024,neutral,1,[256.0],[0.0],[1],[0],[0],[0.5828072462113596],['neutral_5'],0.0004791551474454536,None,,,07,001,healthy,23,f,17,1,aurora,2022-03-31_08h56.38.359,pilot_AIM1,2022.1.1,84.90628412397484,
,,stimoli/02.subtle/JM2_Disgust.wmv,disgusted,subtle,maschio,8,10,1646,926,,,,,,,,,,,,,,,,,0,0,0,0,,,,,0,4,4,11,125.676408221862,disprezzo,96.02083107326243,disprezzo,3,,,,,,,,,,disgusted,[-312.0],[78.0],[1],[0],[0],[3.575472708682696],['disprezzo_3'],0.010980478436636076,None,-7.2864503791339565,soglievo,265.1282708426244,sorpresa,2,[268.0],[-67.0],[1],[0],[0],[4.772801242339597],['sorpresa_6'],0.0004823623438596769,None,,,07,001,healthy,23,f,17,1,aurora,2022-03-31_08h56.38.359,pilot_AIM1,2022.1.1,84.90628412397484,
,,stimoli/02.subtle/JM1_Sadness.wmv,sad,subtle,maschio,7,10,1646,926,,,,,,,,,,,,,,,,,0,0,0,0,,,,,0,5,5,18,125.44571032759825,disprezzo,72.42237223399962,disprezzo,2,,,,,,,,,,sad,[-298.0],[59.0],[1],[0],[0],[7.449908081750095],['disprezzo_2'],0.010967649650865496,None,0.0,soddisfazione,256.4995126701024,neutral,1,[256.0],[0.0],[1],[0],[0],[1.0755230616666722],['neutral_5'],0.00048172090464504436,None,,,07,001,healthy,23,f,17,1,aurora,2022-03-31_08h56.38.359,pilot_AIM1,2022.1.1,84.90628412397484,
,,stimoli/01.full/M02-Disgust-Face Forward.wmv,disgusted,full,maschio,3,6,720,576,,,,,,,,,,,,,,,,,0,0,0,0,,,,,0,6,6,38,147.40741852740075,disgusto,144.80331487918363,disgusto,4,,,,,,,,,,disgusted,[-378.0],[78.0],[1],[0],[0],[2.7972179495238834],['disgusto_4'],0.010474062119556038,None,-0.3344073672432,soglievo,256.52095430977954,neutral,1,[258.0],[-3.0],[1],[0],[0],[1.9717660876181071],['neutral_5'],0.0005833890317035184,None,,,07,001,healthy,23,f,17,1,aurora,2022-03-31_08h56.38.359,pilot_AIM1,2022.1.1,84.90628412397484,
,,stimoli/02.subtle/JF2_Surprise.wmv,surprised,subtle,femmina,6,10,1646,926,,,,,,,,,,,,,,,,,0,0,0,0,,,,,0,7,7,21,-80.6704603573019,sorpresa,141.8767070381886,sorpresa,4,,,,,,,,,,surprised,[-233.0],[-140.0],[1],[0],[0],[2.9617679734495823],['sorpresa_4'],0.010961555977814896,None,6.994390688613008,soddisfazione,261.76516192954324,disgusto,3,[176.0],[53.0],[1],[0],[0],[3.879103447479565],['disgusto_7'],0.0005936520602745077,None,,,07,001,healthy,23,f,17,1,aurora,2022-03-31_08h56.38.359,pilot_AIM1,2022.1.1,84.90628412397484,
,,stimoli/01.full/M02-Neutral-Face Forward.wmv,neutral,full,maschio,3,6,720,576,,,,,,,,,,,,,,,,,0,0,0,0,,,,,0,8,8,54,31.6075022462489,gioia,45.79301256742124,gioia,1,,,,,,,,,,neutral,[-217.0],[24.0],[1],[0],[0],[7.955734274795191],['gioia_1'],0.01055135555372999,None,0.0,soddisfazione,256.4995126701024,neutral,1,[256.0],[0.0],[1],[0],[0],[0.8278344881377961],['neutral_5'],0.0006507401568569549,None,,,07,001,healthy,23,f,17,1,aurora,2022-03-31_08h56.38.359,pilot_AIM1,2022.1.1,84.90628412397484,
,,stimoli/02.subtle/JM1_Neutral.wmv,neutral,subtle,maschio,7,10,1646,926,,,,,,,,,,,,,,,,,0,0,0,0,,,,,0,9,9,26,-135.0,vergogna,1.4142135623730951,neutral,1,,,,,,,,,,neutral,[-257.0],[-1.0],[1],[0],[0],[0.8544949499485028],['neutral_1'],0.010996835138598726,None,0.0,soddisfazione,256.4995126701024,neutral,1,[256.0],[0.0],[1],[0],[0],[0.520688982767183],['neutral_5'],0.0005301495708636139,None,,,07,001,healthy,23,f,17,1,aurora,2022-03-31_08h56.38.359,pilot_AIM1,2022.1.1,84.90628412397484,
,,stimoli/01.full/M02-Sadness-Face Forward.wmv,sad,full,maschio,3,6,720,576,,,,,,,,,,,,,,,,,0,0,0,0,,,,,0,10,10,46,169.62415507994896,invidia,72.18032973047436,invidia,2,,,,,,,,,,sad,[-327.0],[13.0],[1],[0],[0],[7.6490380976449615],['invidia_2'],0.010569957293000698,None,7.677691613849953,soddisfazione,265.0773472026608,rabbia,2,[241.0],[67.0],[1],[0],[0],[1.6901723162501412],['rabbia_6'],0.0006937165890121832,None,,,07,001,healthy,23,f,17,1,aurora,2022-03-31_08h56.38.359,pilot_AIM1,2022.1.1,84.90628412397484,
,,stimoli/01.full/F01-Neutral-Face Forward.wmv,neutral,full,femmina,1,6,720,576,,,,,,,,,,,,,,,,,0,0,0,0,,,,,0,11,11,52,0.0,soddisfazione,0.0,neutral,1,,,,,,,,,,neutral,[-256.0],[0.0],[1],[0],[0],[1.30238153578523],['neutral_1'],0.010489135942862049,None,0.0,soddisfazione,256.4995126701024,neutral,1,[256.0],[0.0],[1],[0],[0],[0.4846333597178045],['neutral_5'],0.0006969237855400934,None,,,07,001,healthy,23,f,17,1,aurora,2022-03-31_08h56.38.359,pilot_AIM1,2022.1.1,84.90628412397484,
,,stimoli/02.subtle/JM2_Fear.wmv,fear,subtle,maschio,8,10,1646,926,,,,,,,,,,,,,,,,,0,0,0,0,,,,,0,12,12,3,-79.02775976218835,sorpresa,99.82484660644363,sorpresa,3,,,,,,,,,,fear,[-237.0],[-98.0],[1],[0],[0],[3.0439963207043093],['sorpresa_3'],0.010958348781400673,None,-10.058703255572256,soglievo,268.5721504549569,paura,3,[195.0],[-80.0],[1],[0],[0],[2.0644345007101492],['paura_7'],0.0005747296013396408,None,,,07,001,healthy,23,f,17,1,aurora,2022-03-31_08h56.38.359,pilot_AIM1,2022.1.1,84.90628412397484,
,,stimoli/02.subtle/JF2_Disgust.wmv,disgusted,subtle,femmina,6,10,1646,926,,,,,,,,,,,,,,,,,0,0,0,0,,,,,0,13,13,9,124.03212781733832,disprezzo,92.91393867445294,disprezzo,3,,,,,,,,,,disgusted,[-308.0],[77.0],[1],[0],[0],[2.9152129514288845],['disprezzo_3'],0.0108178735773663,None,-0.112344521736011,soglievo,256.4975633412528,neutral,1,[254.0],[-1.0],[1],[0],[0],[1.4530816026232287],['neutral_5'],0.00045349757601798046,None,,,07,001,healthy,23,f,17,1,aurora,2022-03-31_08h56.38.359,pilot_AIM1,2022.1.1,84.90628412397484,
,,stimoli/01.full/F03-Surprise-Face Forward.wmv,surprised,full,femmina,2,6,720,576,,,,,,,,,,,,,,,,,0,0,0,0,,,,,0,14,14,49,-79.99202019855866,sorpresa,138.10141201305655,sorpresa,4,,,,,,,,,,surprised,[-232.0],[-136.0],[1],[0],[0],[1.5376447888830853],['sorpresa_4'],0.01049779537311224,None,0.0,soddisfazione,256.4995126701024,neutral,1,[256.0],[0.0],[1],[0],[0],[0.5791805484818724],['neutral_5'],0.0007399002176953218,None,,,07,001,healthy,23,f,17,1,aurora,2022-03-31_08h56.38.359,pilot_AIM1,2022.1.1,84.90628412397484,
,,stimoli/01.full/M03-Surprise-Face Forward.wmv,surprised,full,maschio,4,6,720,576,,,,,,,,,,,,,,,,,0,0,0,0,,,,,0,15,15,51,-80.13419305691563,sorpresa,140.07141035914503,sorpresa,4,,,,,,,,,,surprised,[-232.0],[-138.0],[1],[0],[0],[2.3705421573142758],['sorpresa_4'],0.010474382839220198,None,0.0,soddisfazione,256.4995126701024,neutral,1,[256.0],[0.0],[1],[0],[0],[2.3619568131756523],['neutral_5'],0.0005994250137746349,None,,,07,001,healthy,23,f,17,1,aurora,2022-03-31_08h56.38.359,pilot_AIM1,2022.1.1,84.90628412397484,
,,stimoli/02.subtle/JM2_Anger.wmv,angry,subtle,maschio,8,10,1646,926,,,,,,,,,,,,,,,,,0,0,0,0,,,,,0,16,16,7,101.76828893202065,rabbia,98.0612053770501,rabbia,3,,,,,,,,,,angry,[-276.0],[96.0],[1],[0],[0],[3.162647515000117],['rabbia_3'],0.010975667642128428,None,1.6923375309026798,soddisfazione,256.68852720758673,invidia,2,[184.0],[13.0],[1],[0],[0],[5.326841860841114],['invidia_6'],0.0005657494511979166,None,,,07,001,healthy,23,f,17,1,aurora,2022-03-31_08h56.38.359,pilot_AIM1,2022.1.1,84.90628412397484,
,,stimoli/01.full/F01-Fear-Face Forward.wmv,fear,full,femmina,1,6,720,576,,,,,,,,,,,,,,,,,0,0,0,0,,,,,0,17,17,28,-123.15360586678057,paura,148.11144452742334,paura,4,,,,,,,,,,fear,[-337.0],[-124.0],[1],[0],[0],[2.6767925341598584],['paura_4'],0.010579258162806582,None,-1.8141919090299523,soglievo,256.74500968860133,colpa,2,[186.0],[-14.0],[1],[0],[0],[3.0672385525538175],['colpa_6'],0.0005920484618400224,None,,,07,001,healthy,23,f,17,1,aurora,2022-03-31_08h56.38.359,pilot_AIM1,2022.1.1,84.90628412397484,
,,stimoli/01.full/M03-Neutral-Face Forward.wmv,neutral,full,maschio,4,6,720,576,,,,,,,,,,,,,,,,,0,0,0,0,,,,,0,18,18,55,-11.309932474020213,soglievo,5.0990195135927845,neutral,1,,,,,,,,,,neutral,[-251.0],[-1.0],[1],[0],[0],[2.0673482386719115],['neutral_1'],0.01057765456425841,None,0.0,soddisfazione,256.4995126701024,neutral,1,[256.0],[0.0],[1],[0],[0],[0.5793097984981159],['neutral_5'],0.000562542255011067,None,,,07,001,healthy,23,f,17,1,aurora,2022-03-31_08h56.38.359,pilot_AIM1,2022.1.1,84.90628412397484,
,,stimoli/01.full/M02-Joy-Face Forward.wmv,happy,full,maschio,3,6,720,576,,,,,,,,,,,,,,,,,0,0,0,0,,,,,0,19,19,42,33.25436657471205,gioia,145.89036979869508,gioia,4,,,,,,,,,,happy,[-134.0],[80.0],[1],[0],[0],[2.4422457687458063],['gioia_4'],0.010560656423194814,None,1.1178245823861193,soddisfazione,256.98054401063126,soddisfazione,3,[359.0],[12.0],[1],[0],[0],[4.57497944187071],['soddisfazione_7'],0.0006462500818997796,None,,,07,001,healthy,23,f,17,1,aurora,2022-03-31_08h56.38.359,pilot_AIM1,2022.1.1,84.90628412397484,
,,stimoli/02.subtle/JM2_Sadness.wmv,sad,subtle,maschio,8,10,1646,926,,,,,,,,,,,,,,,,,0,0,0,0,,,,,0,20,20,19,-169.66108945705895,colpa,150.44268011438774,colpa,4,,,,,,,,,,sad,[-404.0],[-27.0],[1],[0],[0],[2.845201456836776],['colpa_4'],0.011009022485040987,None,-2.9108378261677537,soglievo,257.54222954692307,vergogna,1,[216.0],[-24.0],[1],[0],[0],[3.1129824745958103],['vergogna_5'],0.0007293164694601728,None,,,07,001,healthy,23,f,17,1,aurora,2022-03-31_08h56.38.359,pilot_AIM1,2022.1.1,84.90628412397484,
,,stimoli/02.subtle/JF2_Fear.wmv,fear,subtle,femmina,6,10,1646,926,,,,,,,,,,,,,,,,,0,0,0,0,,,,,0,21,21,1,-125.62790729142091,paura,73.81734213584231,paura,2,,,,,,,,,,fear,[-299.0],[-60.0],[1],[0],[0],[3.715639700986685],['paura_2'],0.010997155858376573,None,0.22164601045943727,soddisfazione,256.51705596314645,neutral,1,[261.0],[2.0],[1],[0],[0],[2.0544909088810073],['neutral_5'],0.0007591433961806615,None,,,07,001,healthy,23,f,17,1,aurora,2022-03-31_08h56.38.359,pilot_AIM1,2022.1.1,84.90628412397484,
,,stimoli/01.full/F03-Fear-Face Forward.wmv,fear,full,femmina,2,6,720,576,,,,,,,,,,,,,,,,,0,0,0,0,,,,,0,22,22,29,-78.53604698430745,sorpresa,145.91093173576817,sorpresa,4,,,,,,,,,,fear,[-227.0],[-143.0],[1],[0],[0],[2.0323667057089096],['sorpresa_4'],0.010543979002022752,None,-7.483296907822548,soglievo,263.8105380760973,paura,2,[216.0],[-62.0],[1],[0],[0],[6.3380083566710255],['paura_6'],0.0006189889120378211,None,,,07,001,healthy,23,f,17,1,aurora,2022-03-31_08h56.38.359,pilot_AIM1,2022.1.1,84.90628412397484,
,,stimoli/01.full/F03-Disgust-Face Forward.wmv,disgusted,full,femmina,2,6,720,576,,,,,,,,,,,,,,,,,0,0,0,0,,,,,0,23,23,37,147.74202865818486,disgusto,144.26711336961034,disgusto,4,,,,,,,,,,disgusted,[-378.0],[77.0],[1],[0],[0],[1.9839893546736675],['disgusto_4'],0.010569957293000698,None,0.0,soddisfazione,256.4995126701024,neutral,1,[256.0],[0.0],[1],[0],[0],[0.8275843268158951],['neutral_5'],0.000723543515732672,None,,,07,001,healthy,23,f,17,1,aurora,2022-03-31_08h56.38.359,pilot_AIM1,2022.1.1,84.90628412397484,
,,stimoli/01.full/M03-Sadness-Face Forward.wmv,sad,full,maschio,4,6,720,576,,,,,,,,,,,,,,,,,0,0,0,0,,,,,0,24,24,47,-102.5697918076787,tristezza,151.63442880823604,tristezza,4,,,,,,,,,,sad,[-289.0],[-148.0],[1],[0],[0],[1.5717683967995981],['tristezza_4'],0.010544299721459538,None,-1.8060252976012394,soglievo,256.7489045740994,colpa,2,[188.0],[-14.0],[1],[0],[0],[2.313348223277444],['colpa_6'],0.00043040576179009804,None,,,07,001,healthy,23,f,17,1,aurora,2022-03-31_08h56.38.359,pilot_AIM1,2022.1.1,84.90628412397484,
,,stimoli/02.subtle/JM1_Surprise.wmv,surprised,subtle,maschio,7,10,1646,926,,,,,,,,,,,,,,,,,0,0,0,0,,,,,0,25,25,22,-77.9052429229879,sorpresa,71.58910531638176,sorpresa,2,,,,,,,,,,surprised,[-241.0],[-70.0],[1],[0],[0],[3.337726444104419],['sorpresa_2'],0.010975026202913796,None,0.0,soddisfazione,256.4995126701024,neutral,1,[256.0],[0.0],[1],[0],[0],[0.5712959767643042],['neutral_5'],0.0006978859444188856,None,,,07,001,healthy,23,f,17,1,aurora,2022-03-31_08h56.38.359,pilot_AIM1,2022.1.1,84.90628412397484,
,,stimoli/01.full/M03-Disgust-Face Forward.wmv,disgusted,full,maschio,4,6,720,576,,,,,,,,,,,,,,,,,0,0,0,0,,,,,0,26,26,39,146.30993247402023,disgusto,144.22205101855957,disgusto,4,,,,,,,,,,disgusted,[-376.0],[80.0],[1],[0],[0],[1.7817470753575435],['disgusto_4'],0.01051415207507489,None,0.0,soddisfazione,256.4995126701024,neutral,1,[256.0],[0.0],[1],[0],[0],[0.37220316434832057],['neutral_5'],0.0006109709211159497,None,,,07,001,healthy,23,f,17,1,aurora,2022-03-31_08h56.38.359,pilot_AIM1,2022.1.1,84.90628412397484,
,,stimoli/02.subtle/JF2_Anger.wmv,angry,subtle,femmina,6,9,1646,926,,,,,,,,,,,,,,,,,0,0,0,0,,,,,0,27,27,5,100.61965527615514,rabbia,97.67292357659824,rabbia,3,,,,,,,,,,angry,[-274.0],[96.0],[1],[0],[0],[1.418052923872665],['rabbia_3'],0.010972460445600518,None,0.336370574910119,soddisfazione,256.5151067676132,neutral,1,[255.0],[3.0],[1],[0],[0],[1.3477460464889646],['neutral_5'],0.0006266861837502802,None,,,07,001,healthy,23,f,17,1,aurora,2022-03-31_08h56.38.359,pilot_AIM1,2022.1.1,84.90628412397484,
,,stimoli/01.full/M03-Joy-Face Forward.wmv,happy,full,maschio,4,6,720,576,,,,,,,,,,,,,,,,,0,0,0,0,,,,,0,28,28,43,32.59258147259926,gioia,144.80331487918363,gioia,4,,,,,,,,,,happy,[-134.0],[78.0],[1],[0],[0],[2.337186352224535],['gioia_4'],0.010475986437540996,None,0.0,soddisfazione,256.4995126701024,neutral,1,[256.0],[0.0],[1],[0],[0],[1.746098124816399],['neutral_5'],0.0005121892709212261,None,,,07,001,healthy,23,f,17,1,aurora,2022-03-31_08h56.38.359,pilot_AIM1,2022.1.1,84.90628412397484,
,,stimoli/01.full/F01-Disgust-Face Forward.wmv,disgusted,full,femmina,1,6,720,576,,,,,,,,,,,,,,,,,0,0,0,0,,,,,0,29,29,36,127.3493490446406,disprezzo,143.40502083260543,disprezzo,4,,,,,,,,,,disgusted,[-343.0],[114.0],[1],[0],[0],[1.5254452550811948],['disprezzo_4'],0.010561939302078827,None,0.0,soddisfazione,256.4995126701024,neutral,1,[256.0],[0.0],[1],[0],[0],[0.4274474436720084],['neutral_5'],0.0006488158387583098,None,,,07,001,healthy,23,f,17,1,aurora,2022-03-31_08h56.38.359,pilot_AIM1,2022.1.1,84.90628412397484,
,,stimoli/01.full/F03-Anger-Face Forward.wmv,angry,full,femmina,2,6,720,576,,,,,,,,,,,,,,,,,0,0,0,0,,,,,0,30,30,33,100.22900828735952,rabbia,135.14806694880988,rabbia,4,,,,,,,,,,angry,[-280.0],[133.0],[1],[0],[0],[2.620825673479203],['rabbia_4'],0.010487853063978037,None,-11.154659738928299,soglievo,274.55600521569363,tristezza,3,[241.0],[-98.0],[1],[0],[0],[1.3936205014258576],['tristezza_7'],0.0005788989567463432,None,,,07,001,healthy,23,f,17,1,aurora,2022-03-31_08h56.38.359,pilot_AIM1,2022.1.1,84.90628412397484,
,,stimoli/01.full/F01-Anger-Face Forward.wmv,angry,full,femmina,1,6,720,576,,,,,,,,,,,,,,,,,0,0,0,0,,,,,0,31,31,32,106.35581710101725,rabbia,95.88013350011565,rabbia,3,,,,,,,,,,angry,[-283.0],[92.0],[1],[0],[0],[1.476414277412232],['rabbia_3'],0.010489456662071461,None,1.8183029644518336,soddisfazione,256.7430622236948,invidia,2,[185.0],[14.0],[1],[0],[0],[3.914252396096572],['invidia_6'],0.000643684324586502,None,,,07,001,healthy,23,f,17,1,aurora,2022-03-31_08h56.38.359,pilot_AIM1,2022.1.1,84.90628412397484,
,,stimoli/02.subtle/JF1_Fear.wmv,fear,subtle,femmina,5,10,1646,926,,,,,,,,,,,,,,,,,0,0,0,0,,,,,0,32,32,0,-122.0053832080835,paura,94.33981132056604,paura,3,,,,,,,,,,fear,[-306.0],[-80.0],[1],[0],[0],[6.04564161247572],['paura_3'],0.010966366772436231,None,-4.81620661131167,soglievo,259.1814036538887,vergogna,2,[195.0],[-38.0],[1],[0],[0],[1.7480747199797406],['vergogna_6'],0.0005096235133805749,None,,,07,001,healthy,23,f,17,1,aurora,2022-03-31_08h56.38.359,pilot_AIM1,2022.1.1,84.90628412397484,
,,stimoli/01.full/M02-Surprise-Face Forward.wmv,surprised,full,maschio,3,6,720,576,,,,,,,,,,,,,,,,,0,0,0,0,,,,,0,33,33,50,-77.56043798115346,sorpresa,139.26952286842948,sorpresa,4,,,,,,,,,,surprised,[-226.0],[-136.0],[1],[0],[0],[1.677920184426739],['sorpresa_4'],0.010558411386000444,None,4.035344737649757,soddisfazione,259.70560255797335,gioia,2,[311.0],[40.0],[1],[0],[0],[6.011049433160224],['gioia_6'],0.0003880707688495022,None,,,07,001,healthy,23,f,17,1,aurora,2022-03-31_08h56.38.359,pilot_AIM1,2022.1.1,84.90628412397484,
,,stimoli/02.subtle/JM1_Anger.wmv,angry,subtle,maschio,7,10,1646,926,,,,,,,,,,,,,,,,,0,0,0,0,,,,,0,34,34,6,-135.0,vergogna,1.4142135623730951,neutral,1,,,,,,,,,,angry,[-257.0],[-1.0],[1],[0],[0],[4.645151937723995],['neutral_1'],0.010912165152376474,None,0.0,soddisfazione,256.4995126701024,neutral,1,[256.0],[0.0],[1],[0],[0],[0.4747250470495601],['neutral_5'],8.49907053179777e-05,None,,,07,001,healthy,23,f,17,1,aurora,2022-03-31_08h56.38.359,pilot_AIM1,2022.1.1,84.90628412397484,
,,stimoli/02.subtle/JM2_Happiness.wmv,happy,subtle,maschio,8,10,1646,926,,,,,,,,,,,,,,,,,0,0,0,0,,,,,0,35,35,15,-58.0552472237966,interesse,100.16985574512923,interesse,3,,,,,,,,,,happy,[-203.0],[-85.0],[1],[0],[0],[4.753057420362211],['interesse_3'],0.010837758195521019,None,-5.662918178030617,soglievo,263.35527334762065,speranza,3,[339.0],[-59.0],[1],[0],[0],[2.771877249046611],['speranza_7'],0.0007543326012182661,None,,,07,001,healthy,23,f,17,1,aurora,2022-03-31_08h56.38.359,pilot_AIM1,2022.1.1,84.90628412397484,
,,stimoli/02.subtle/JF1_Anger.wmv,angry,subtle,femmina,5,10,1646,926,,,,,,,,,,,,,,,,,0,0,0,0,,,,,0,36,36,4,98.13010235415598,rabbia,70.71067811865476,rabbia,2,,,,,,,,,,angry,[-266.0],[70.0],[1],[0],[0],[3.163967597052988],['rabbia_2'],0.010982082034843188,None,-0.11147024751704282,soglievo,256.5053605677667,neutral,1,[258.0],[-1.0],[1],[0],[0],[1.3676928840009168],['neutral_5'],0.0005744088814481074,None,,,07,001,healthy,23,f,17,1,aurora,2022-03-31_08h56.38.359,pilot_AIM1,2022.1.1,84.90628412397484,
,,stimoli/02.subtle/JM1_Fear.wmv,fear,subtle,maschio,7,10,1646,926,,,,,,,,,,,,,,,,,0,0,0,0,,,,,0,37,37,2,-124.94566440000565,paura,101.25709851659784,paura,3,,,,,,,,,,fear,[-314.0],[-83.0],[1],[0],[0],[2.3024370202836053],['paura_3'],0.010975988361678901,None,-0.1119056770662069,soglievo,256.5014619841376,neutral,1,[256.0],[-1.0],[1],[0],[0],[2.2645654826126247],['neutral_5'],0.00045061109926791687,None,,,07,001,healthy,23,f,17,1,aurora,2022-03-31_08h56.38.359,pilot_AIM1,2022.1.1,84.90628412397484,
,,stimoli/02.subtle/JF1_Sadness.wmv,sad,subtle,femmina,5,10,1646,926,,,,,,,,,,,,,,,,,0,0,0,0,,,,,0,38,38,16,147.52880770915152,disgusto,65.19202405202648,disgusto,2,,,,,,,,,,sad,[-311.0],[35.0],[1],[0],[0],[3.2809455969684223],['disgusto_2'],0.010981761315179028,None,0.0,soddisfazione,256.4995126701024,neutral,1,[256.0],[0.0],[1],[0],[0],[0.9813716409428253],['neutral_5'],0.00040955898475658614,None,,,07,001,healthy,23,f,17,1,aurora,2022-03-31_08h56.38.359,pilot_AIM1,2022.1.1,84.90628412397484,
,,stimoli/01.full/F03-Joy-Face Forward.wmv,happy,full,femmina,2,6,720,576,,,,,,,,,,,,,,,,,0,0,0,0,,,,,0,39,39,41,35.87499135206403,gioia,138.2208377922808,gioia,4,,,,,,,,,,happy,[-144.0],[81.0],[1],[0],[0],[2.724276039548613],['gioia_4'],0.01054494116033311,None,2.1342587625022915,soddisfazione,257.87593916455256,soddisfazione,4,[388.0],[24.0],[1],[0],[0],[3.5993355330426766],['soddisfazione_8'],5.163586251910601e-05,None,,,07,001,healthy,23,f,17,1,aurora,2022-03-31_08h56.38.359,pilot_AIM1,2022.1.1,84.90628412397484,
,,stimoli/02.subtle/JM2_Neutral.wmv,neutral,subtle,maschio,8,10,1646,926,,,,,,,,,,,,,,,,,0,0,0,0,,,,,0,40,40,27,0.0,soddisfazione,0.0,neutral,1,,,,,,,,,,neutral,[-256.0],[0.0],[1],[0],[0],[0.6072476866493162],['neutral_1'],0.011003890970641805,None,0.0,soddisfazione,256.4995126701024,neutral,1,[256.0],[0.0],[1],[0],[0],[0.4748469205139827],['neutral_5'],0.0006446464835789811,None,,,07,001,healthy,23,f,17,1,aurora,2022-03-31_08h56.38.359,pilot_AIM1,2022.1.1,84.90628412397484,
,,stimoli/01.full/M03-Fear-Face Forward.wmv,fear,full,maschio,4,6,720,576,,,,,,,,,,,,,,,,,0,0,0,0,,,,,0,41,41,31,-168.29709851977864,colpa,142.97202523570826,colpa,4,,,,,,,,,,fear,[-396.0],[-29.0],[1],[0],[0],[5.175784191600542],['colpa_4'],0.010485928746220452,None,0.0,soddisfazione,256.4995126701024,neutral,1,[256.0],[0.0],[1],[0],[0],[2.146417497437369],['neutral_5'],0.0004980776063803205,None,,,07,001,healthy,23,f,17,1,aurora,2022-03-31_08h56.38.359,pilot_AIM1,2022.1.1,84.90628412397484,
,,stimoli/02.subtle/JF2_Happiness.wmv,happy,subtle,femmina,6,9,1646,926,,,,,,,,,,,,,,,,,0,0,0,0,,,,,0,42,42,13,10.234802763423213,soddisfazione,146.32839779072276,soddisfazione,4,,,,,,,,,,happy,[-112.0],[26.0],[1],[0],[0],[5.660287659862661],['soddisfazione_4'],0.010993627942070816,None,10.34318422116632,soddisfazione,273.9014421283685,orgoglio,3,[270.0],[96.0],[1],[0],[0],[2.5952309630440595],['orgoglio_7'],0.0006946787477772887,None,,,07,001,healthy,23,f,17,1,aurora,2022-03-31_08h56.38.359,pilot_AIM1,2022.1.1,84.90628412397484,
,,stimoli/01.full/F01-Surprise-Face Forward.wmv,surprised,full,femmina,1,6,720,576,,,,,,,,,,,,,,,,,0,0,0,0,,,,,0,43,43,48,-78.92979742206063,sorpresa,140.61649974309557,sorpresa,4,,,,,,,,,,surprised,[-229.0],[-138.0],[1],[0],[0],[1.6756786748378545],['sorpresa_4'],0.010561939301851453,None,0.335713616182199,soddisfazione,256.51705596314645,neutral,1,[256.0],[3.0],[1],[0],[0],[1.172484307187915],['neutral_5'],0.0007514461246955761,None,,,07,001,healthy,23,f,17,1,aurora,2022-03-31_08h56.38.359,pilot_AIM1,2022.1.1,84.90628412397484,
,,stimoli/02.subtle/JF1_Surprise.wmv,surprised,subtle,femmina,5,10,1646,926,,,,,,,,,,,,,,,,,0,0,0,0,,,,,0,44,44,20,-56.42406734200108,interesse,139.2300254973761,interesse,4,,,,,,,,,,surprised,[-179.0],[-116.0],[1],[0],[0],[3.8921525676173587],['interesse_4'],0.010999721615235103,None,2.77244815828038,soddisfazione,257.08558886098615,invidia,3,[157.0],[20.0],[1],[0],[0],[8.75593587916319],['invidia_7'],0.0006372699315306818,None,,,07,001,healthy,23,f,17,1,aurora,2022-03-31_08h56.38.359,pilot_AIM1,2022.1.1,84.90628412397484,
,,stimoli/01.full/M03-Anger-Face Forward.wmv,angry,full,maschio,4,6,720,576,,,,,,,,,,,,,,,,,0,0,0,0,,,,,0,45,45,35,101.30993247402021,rabbia,142.772546380598,rabbia,4,,,,,,,,,,angry,[-284.0],[140.0],[1],[0],[0],[2.9829380356818547],['rabbia_4'],0.01054911051619456,None,0.0,soddisfazione,256.4995126701024,neutral,1,[256.0],[0.0],[1],[0],[0],[1.6319796612431219],['neutral_5'],0.0006879436352846824,None,,,07,001,healthy,23,f,17,1,aurora,2022-03-31_08h56.38.359,pilot_AIM1,2022.1.1,84.90628412397484,
,,stimoli/02.subtle/JM2_Surprise.wmv,surprised,subtle,maschio,8,10,1646,926,,,,,,,,,,,,,,,,,0,0,0,0,,,,,0,46,46,23,-53.569141879837645,interesse,104.4030650891055,interesse,3,,,,,,,,,,surprised,[-194.0],[-84.0],[1],[0],[0],[5.61280287159525],['interesse_3'],0.01093621912582421,None,-10.913644723222589,soglievo,276.0670208481991,sorpresa,3,[273.0],[-102.0],[1],[0],[0],[2.970976155135986],['sorpresa_7'],0.0007341272641951946,None,,,07,001,healthy,23,f,17,1,aurora,2022-03-31_08h56.38.359,pilot_AIM1,2022.1.1,84.90628412397484,
,,stimoli/01.full/F01-Joy-Face Forward.wmv,happy,full,femmina,1,6,720,576,,,,,,,,,,,,,,,,,0,0,0,0,,,,,0,47,47,40,-13.12040315297726,soglievo,136.56500283747664,sollievo,4,,,,,,,,,,happy,[-123.0],[-31.0],[1],[0],[0],[3.2302484807510154],['sollievo_4'],0.010558090665881537,None,3.914137218612427,soddisfazione,259.5592417926975,gioia,2,[314.0],[39.0],[1],[0],[0],[2.407902788593219],['gioia_6'],0.0007726136211658741,None,,,07,001,healthy,23,f,17,1,aurora,2022-03-31_08h56.38.359,pilot_AIM1,2022.1.1,84.90628412397484,
,,stimoli/01.full/M02-Fear-Face Forward.wmv,fear,full,maschio,3,6,720,576,,,,,,,,,,,,,,,,,0,0,0,0,,,,,0,48,48,30,-121.52684188726886,paura,139.60659010233005,paura,4,,,,,,,,,,fear,[-329.0],[-119.0],[1],[0],[0],[2.136786607260774],['paura_4'],0.010553600591038048,None,0.0,soddisfazione,256.4995126701024,neutral,1,[256.0],[0.0],[1],[0],[0],[0.7816271262108785],['neutral_5'],0.0007809523319792788,None,,,07,001,healthy,23,f,17,1,aurora,2022-03-31_08h56.38.359,pilot_AIM1,2022.1.1,84.90628412397484,
,,stimoli/02.subtle/JF1_Disgust.wmv,disgusted,subtle,femmina,5,10,1646,926,,,,,,,,,,,,,,,,,0,0,0,0,,,,,0,49,49,8,149.53445508054014,disgusto,98.6154146165801,disgusto,3,,,,,,,,,,disgusted,[-341.0],[50.0],[1],[0],[0],[1.7468207061733665],['disgusto_3'],0.010847700504200475,None,0.0,soddisfazione,256.4995126701024,neutral,1,[256.0],[0.0],[1],[0],[0],[0.4772192837174316],['neutral_5'],0.0006574752692358743,None,,,07,001,healthy,23,f,17,1,aurora,2022-03-31_08h56.38.359,pilot_AIM1,2022.1.1,84.90628412397484,
,,stimoli/01.full/M02-Anger-Face Forward.wmv,angry,full,maschio,3,6,720,576,,,,,,,,,,,,,,,,,0,0,0,0,,,,,0,50,50,34,103.3392489033634,rabbia,99.68951800465283,rabbia,3,,,,,,,,,,angry,[-279.0],[97.0],[1],[0],[0],[4.728754247931647],['rabbia_3'],0.01056065642296744,None,1.2902273520604597,soddisfazione,256.5618833731932,invidia,2,[188.0],[10.0],[1],[0],[0],[4.913668044905762],['invidia_6'],0.000668379737135183,None,,,07,001,healthy,23,f,17,1,aurora,2022-03-31_08h56.38.359,pilot_AIM1,2022.1.1,84.90628412397484,
,,stimoli/01.full/F03-Neutral-Face Forward.wmv,neutral,full,femmina,2,6,720,576,,,,,,,,,,,,,,,,,0,0,0,0,,,,,0,51,51,53,0.0,soddisfazione,0.0,neutral,1,,,,,,,,,,neutral,[-256.0],[0.0],[1],[0],[0],[1.2077560914281094],['neutral_1'],0.010581182480564166,None,0.0,soddisfazione,256.4995126701024,neutral,1,[256.0],[0.0],[1],[0],[0],[0.4263021538247358],['neutral_5'],0.0006539473531574913,None,,,07,001,healthy,23,f,17,1,aurora,2022-03-31_08h56.38.359,pilot_AIM1,2022.1.1,84.90628412397484,
,,stimoli/02.subtle/JF2_Sadness.wmv,sad,subtle,femmina,6,8,1646,926,,,,,,,,,,,,,,,,,0,0,0,0,,,,,0,52,52,17,-168.90627698844216,colpa,103.94229168149026,colpa,3,,,,,,,,,,sad,[-358.0],[-20.0],[1],[0],[0],[2.280168493271958],['colpa_3'],0.010995231540164241,None,0.0,soddisfazione,256.4995126701024,neutral,1,[256.0],[0.0],[1],[0],[0],[0.522367629381506],['neutral_5'],0.0008075720625129179,None,,,07,001,healthy,23,f,17,1,aurora,2022-03-31_08h56.38.359,pilot_AIM1,2022.1.1,84.90628412397484,
,,stimoli/02.subtle/JF1_Happiness.wmv,happy,subtle,femmina,5,10,1646,926,,,,,,,,,,,,,,,,,0,0,0,0,,,,,0,53,53,12,-10.901267653030066,soglievo,137.48090776540573,sollievo,4,,,,,,,,,,happy,[-121.0],[-26.0],[1],[0],[0],[1.9735380636486752],['sollievo_4'],0.010995231540164241,None,0.0,soddisfazione,256.4995126701024,neutral,1,[256.0],[0.0],[1],[0],[0],[1.194020631253352],['neutral_5'],0.0006218753887878847,None,,,07,001,healthy,23,f,17,1,aurora,2022-03-31_08h56.38.359,pilot_AIM1,2022.1.1,84.90628412397484,
,,stimoli/02.subtle/JM1_Happiness.wmv,happy,subtle,maschio,7,10,1646,926,,,,,,,,,,,,,,,,,0,0,0,0,,,,,0,54,54,14,-31.429565614838516,speranza,147.6651617681029,speranza,4,,,,,,,,,,happy,[-130.0],[-77.0],[1],[0],[0],[1.6073894447315524],['speranza_4'],0.01100645672772771,None,4.95712606968069,soddisfazione,261.6658174083883,gioia,3,[332.0],[51.0],[1],[0],[0],[1.5107421837415131],['gioia_7'],0.0005458648331568838,None,,,07,001,healthy,23,f,17,1,aurora,2022-03-31_08h56.38.359,pilot_AIM1,2022.1.1,84.90628412397484,
,,stimoli/02.subtle/JF2_Neutral.wmv,neutral,subtle,femmina,6,9,1646,926,,,,,,,,,,,,,,,,,0,0,0,0,,,,,0,55,55,25,0.0,soddisfazione,0.0,neutral,1,,,,,,,,,,neutral,[-256.0],[0.0],[1],[0],[0],[0.7016726812291836],['neutral_1'],0.011000363054563422,None,0.0,soddisfazione,256.4995126701024,neutral,1,[256.0],[0.0],[1],[0],[0],[0.32182227769953897],['neutral_5'],0.0006972445050905662,None,,,07,001,healthy,23,f,17,1,aurora,2022-03-31_08h56.38.359,pilot_AIM1,2022.1.1,84.90628412397484,
,,stimoli/01.full/F01-Joy-Face Forward.wmv,happy,full,femmina,1,6,720,576,,,,,,,,,,,,,,,,,1,0,1,0,,,,,0,0,0,40,31.759480084812793,gioia,98.79271228182775,gioia,3,,,,,,,,,,happy,[-172.0],[52.0],[1],[0],[0],[3.501075372964806],['gioia_3'],0.01053275381423191,None,-5.57685864992383,soglievo,263.1311460089816,speranza,3,[338.0],[-58.0],[1],[0],[0],[1.5710891125943363],['speranza_7'],0.00010070596795230813,None,,,07,001,healthy,23,f,17,1,aurora,2022-03-31_08h56.38.359,pilot_AIM1,2022.1.1,84.90628412397484,
,,stimoli/02.subtle/JF1_Neutral.wmv,neutral,subtle,femmina,5,10,1646,926,,,,,,,,,,,,,,,,,1,0,1,0,,,,,0,1,1,24,0.0,soddisfazione,0.0,neutral,1,,,,,,,,,,neutral,[-256.0],[0.0],[1],[0],[0],[1.3369249657150704],['neutral_1'],0.010968932529522135,None,0.0,soddisfazione,256.4995126701024,neutral,1,[256.0],[0.0],[1],[0],[0],[0.5800814499607441],['neutral_5'],0.0008175143711923738,None,,,07,001,healthy,23,f,17,1,aurora,2022-03-31_08h56.38.359,pilot_AIM1,2022.1.1,84.90628412397484,
,,stimoli/01.full/M03-Surprise-Face Forward.wmv,surprised,full,maschio,4,6,720,576,,,,,,,,,,,,,,,,,1,0,1,0,,,,,0,2,2,51,-73.65711745655814,sorpresa,138.6001443000692,sorpresa,4,,,,,,,,,,surprised,[-217.0],[-133.0],[1],[0],[0],[5.208982202625521],['sorpresa_4'],0.010593049107001207,None,0.0,soddisfazione,256.4995126701024,neutral,1,[256.0],[0.0],[1],[0],[0],[0.8298098004224812],['neutral_5'],0.000673190531642831,None,,,07,001,healthy,23,f,17,1,aurora,2022-03-31_08h56.38.359,pilot_AIM1,2022.1.1,84.90628412397484,
,,stimoli/01.full/M03-Sadness-Face Forward.wmv,sad,full,maschio,4,6,720,576,,,,,,,,,,,,,,,,,1,0,1,0,,,,,0,3,3,47,-171.13173716679242,colpa,142.70599146496969,colpa,4,,,,,,,,,,sad,[-397.0],[-22.0],[1],[0],[0],[3.79751814311021],['colpa_4'],0.010572843769523388,None,-8.097949843775075,soglievo,266.12027356065903,tristezza,2,[243.0],[-71.0],[1],[0],[0],[4.4567471074294644],['tristezza_6'],0.0007742172194866725,None,,,07,001,healthy,23,f,17,1,aurora,2022-03-31_08h56.38.359,pilot_AIM1,2022.1.1,84.90628412397484,
,,stimoli/01.full/F03-Sadness-Face Forward.wmv,sad,full,femmina,2,6,720,576,,,,,,,,,,,,,,,,,1,0,1,0,,,,,0,4,4,45,-169.4264765814391,colpa,152.5909564816998,colpa,4,,,,,,,,,,sad,[-406.0],[-28.0],[1],[0],[0],[1.5355168140479236],['colpa_4'],0.01058310679832175,None,-11.242180302785526,soglievo,274.184244623939,tristezza,3,[232.0],[-97.0],[1],[0],[0],[3.113572278020456],['tristezza_7'],0.0005881998263248533,None,,,07,001,healthy,23,f,17,1,aurora,2022-03-31_08h56.38.359,pilot_AIM1,2022.1.1,84.90628412397484,
,,stimoli/02.subtle/JM2_Happiness.wmv,happy,subtle,maschio,8,10,1646,926,,,,,,,,,,,,,,,,,1,0,1,0,,,,,0,5,5,15,-12.171458208587472,soglievo,104.34557968596465,sollievo,3,,,,,,,,,,happy,[-154.0],[-22.0],[1],[0],[0],[4.361439171671009],['sollievo_3'],0.011007098167056029,None,0.0,soddisfazione,256.4995126701024,neutral,1,[256.0],[0.0],[1],[0],[0],[0.4763110056869664],['neutral_5'],0.0007492010872738319,None,,,07,001,healthy,23,f,17,1,aurora,2022-03-31_08h56.38.359,pilot_AIM1,2022.1.1,84.90628412397484,
,,stimoli/01.full/F01-Sadness-Face Forward.wmv,sad,full,femmina,1,6,720,576,,,,,,,,,,,,,,,,,1,0,1,0,,,,,0,6,6,44,-97.70748572296499,tristezza,134.21251804507656,tristezza,4,,,,,,,,,,sad,[-274.0],[-133.0],[1],[0],[0],[7.28163899283777],['tristezza_4'],0.010582465358766058,None,-5.472140296164367,soglievo,262.91443475016735,speranza,3,[339.0],[-57.0],[1],[0],[0],[2.8080053547353145],['speranza_7'],0.00048492810083189397,None,,,07,001,healthy,23,f,17,1,aurora,2022-03-31_08h56.38.359,pilot_AIM1,2022.1.1,84.90628412397484,
,,stimoli/01.full/M03-Anger-Face Forward.wmv,angry,full,maschio,4,6,720,576,,,,,,,,,,,,,,,,,1,0,1,0,,,,,0,7,7,35,101.4587523458772,rabbia,151.00993344810135,rabbia,4,,,,,,,,,,angry,[-286.0],[148.0],[1],[0],[0],[1.420290905545471],['rabbia_4'],0.010574126648180027,None,0.2246881796245023,soddisfazione,256.50341128335896,neutral,1,[254.0],[2.0],[1],[0],[0],[1.2509339356020064],['neutral_5'],0.0005048127188729268,None,,,07,001,healthy,23,f,17,1,aurora,2022-03-31_08h56.38.359,pilot_AIM1,2022.1.1,84.90628412397484,
,,stimoli/02.subtle/JM2_Neutral.wmv,neutral,subtle,maschio,8,10,1646,926,,,,,,,,,,,,,,,,,1,0,1,0,,,,,0,8,8,27,0.0,soddisfazione,0.0,neutral,1,,,,,,,,,,neutral,[-256.0],[0.0],[1],[0],[0],[0.9578029164963482],['neutral_1'],0.010891639095234495,None,0.0,soddisfazione,256.4995126701024,neutral,1,[256.0],[0.0],[1],[0],[0],[0.2760138910093701],['neutral_5'],0.0005756917601047462,None,,,07,001,healthy,23,f,17,1,aurora,2022-03-31_08h56.38.359,pilot_AIM1,2022.1.1,84.90628412397484,
,,stimoli/02.subtle/JF2_Happiness.wmv,happy,subtle,femmina,6,9,1646,926,,,,,,,,,,,,,,,,,1,0,1,0,,,,,0,9,9,13,-11.381462748359818,soglievo,157.08914666519772,sollievo,4,,,,,,,,,,happy,[-102.0],[-31.0],[1],[0],[0],[6.107626456548132],['sollievo_4'],0.010897732768626156,None,1.8686937143723028,soddisfazione,257.4742705592153,soddisfazione,3,[357.0],[20.0],[1],[0],[0],[1.9123559808440405],['soddisfazione_7'],0.0004441967062120966,None,,,07,001,healthy,23,f,17,1,aurora,2022-03-31_08h56.38.359,pilot_AIM1,2022.1.1,84.90628412397484,
,,stimoli/02.subtle/JM1_Happiness.wmv,happy,subtle,maschio,7,10,1646,926,,,,,,,,,,,,,,,,,1,0,1,0,,,,,0,10,10,14,-36.119340849479755,speranza,137.41178988718545,speranza,4,,,,,,,,,,happy,[-145.0],[-81.0],[1],[0],[0],[2.208677839683787],['speranza_4'],0.010919220984760614,None,0.0,soddisfazione,256.4995126701024,neutral,1,[256.0],[0.0],[1],[0],[0],[0.744827433588398],['neutral_5'],0.0006741526908626838,None,,,07,001,healthy,23,f,17,1,aurora,2022-03-31_08h56.38.359,pilot_AIM1,2022.1.1,84.90628412397484,
,,stimoli/01.full/F01-Neutral-Face Forward.wmv,neutral,full,femmina,1,6,720,576,,,,,,,,,,,,,,,,,1,0,1,0,,,,,0,11,11,52,0.0,soddisfazione,0.0,neutral,1,,,,,,,,,,neutral,[-256.0],[0.0],[1],[0],[0],[0.9219111811846687],['neutral_1'],0.01058342751798591,None,0.0,soddisfazione,256.4995126701024,neutral,1,[256.0],[0.0],[1],[0],[0],[0.219268643753594],['neutral_5'],0.0007475974891804071,None,,,07,001,healthy,23,f,17,1,aurora,2022-03-31_08h56.38.359,pilot_AIM1,2022.1.1,84.90628412397484,
,,stimoli/01.full/M02-Sadness-Face Forward.wmv,sad,full,maschio,3,6,720,576,,,,,,,,,,,,,,,,,1,0,1,0,,,,,0,12,12,46,-126.75367918553147,paura,98.60020283954795,paura,3,,,,,,,,,,sad,[-315.0],[-79.0],[1],[0],[0],[6.872401369088038],['paura_3'],0.010575409526609292,None,-2.6276726553736003,soglievo,257.0116728866609,colpa,3,[158.0],[-19.0],[1],[0],[0],[1.5002687630612854],['colpa_7'],0.0005189243831864587,None,,,07,001,healthy,23,f,17,1,aurora,2022-03-31_08h56.38.359,pilot_AIM1,2022.1.1,84.90628412397484,
,,stimoli/02.subtle/JF2_Neutral.wmv,neutral,subtle,femmina,6,9,1646,926,,,,,,,,,,,,,,,,,1,0,1,0,,,,,0,13,13,25,0.0,soddisfazione,1.0,neutral,1,,,,,,,,,,neutral,[-255.0],[0.0],[1],[0],[0],[1.2435012578623628],['neutral_1'],0.010914089470361432,None,0.0,soddisfazione,256.4995126701024,neutral,1,[256.0],[0.0],[1],[0],[0],[0.2752794430255108],['neutral_5'],0.000716487683575906,None,,,07,001,healthy,23,f,17,1,aurora,2022-03-31_08h56.38.359,pilot_AIM1,2022.1.1,84.90628412397484,
,,stimoli/01.full/F03-Surprise-Face Forward.wmv,surprised,full,femmina,2,6,720,576,,,,,,,,,,,,,,,,,1,0,1,0,,,,,0,14,14,49,-78.13226810243393,sorpresa,141.01418368376991,sorpresa,4,,,,,,,,,,surprised,[-227.0],[-138.0],[1],[0],[0],[1.69059406258134],['sorpresa_4'],0.010571881610758282,None,2.512280322438666,soddisfazione,257.6877955976961,gioia,1,[291.0],[24.0],[1],[0],[0],[3.511828140454554],['gioia_5'],0.0007305993478894379,None,,,07,001,healthy,23,f,17,1,aurora,2022-03-31_08h56.38.359,pilot_AIM1,2022.1.1,84.90628412397484,
,,stimoli/02.subtle/JM1_Surprise.wmv,surprised,subtle,maschio,7,10,1646,926,,,,,,,,,,,,,,,,,1,0,1,0,,,,,0,15,15,22,-79.76519723657678,sorpresa,73.16419889536138,sorpresa,2,,,,,,,,,,surprised,[-243.0],[-72.0],[1],[0],[0],[2.550437974745364],['sorpresa_2'],0.010950330790365115,None,7.487388197143641,soddisfazione,265.64261706285004,orgoglio,2,[269.0],[69.0],[1],[0],[0],[3.3942927297987353],['orgoglio_6'],0.0006221961084520444,None,,,07,001,healthy,23,f,17,1,aurora,2022-03-31_08h56.38.359,pilot_AIM1,2022.1.1,84.90628412397484,
,,stimoli/02.subtle/JF2_Disgust.wmv,disgusted,subtle,femmina,6,10,1646,926,,,,,,,,,,,,,,,,,1,0,1,0,,,,,0,16,16,9,125.25635871296285,disprezzo,71.02816342831905,disprezzo,2,,,,,,,,,,disgusted,[-297.0],[58.0],[1],[0],[0],[3.0666246951559515],['disprezzo_2'],0.01085571849534972,None,0.0,soddisfazione,256.4995126701024,neutral,1,[256.0],[0.0],[1],[0],[0],[0.47676129606657014],['neutral_5'],0.000451893977697182,None,,,07,001,healthy,23,f,17,1,aurora,2022-03-31_08h56.38.359,pilot_AIM1,2022.1.1,84.90628412397484,
,,stimoli/02.subtle/JM1_Sadness.wmv,sad,subtle,maschio,7,10,1646,926,,,,,,,,,,,,,,,,,1,0,1,0,,,,,0,17,17,18,-101.07020257793937,tristezza,46.87216658103186,tristezza,1,,,,,,,,,,sad,[-265.0],[-46.0],[1],[0],[0],[2.7019347091779764],['tristezza_1'],0.01085475633635724,None,0.0,soddisfazione,256.4995126701024,neutral,1,[256.0],[0.0],[1],[0],[0],[0.6304899184988244],['neutral_5'],0.0007187327212250239,None,,,07,001,healthy,23,f,17,1,aurora,2022-03-31_08h56.38.359,pilot_AIM1,2022.1.1,84.90628412397484,
,,stimoli/02.subtle/JF1_Fear.wmv,fear,subtle,femmina,5,10,1646,926,,,,,,,,,,,,,,,,,1,0,1,0,,,,,0,18,18,0,-166.53479190518829,colpa,73.00684899377592,colpa,2,,,,,,,,,,fear,[-327.0],[-17.0],[1],[0],[0],[6.213445016465812],['colpa_2'],0.010833909559323729,None,-5.002199857588265,soglievo,259.4937378820537,vergogna,2,[201.0],[-40.0],[1],[0],[0],[1.7699298393708887],['vergogna_6'],0.0007379758997103636,None,,,07,001,healthy,23,f,17,1,aurora,2022-03-31_08h56.38.359,pilot_AIM1,2022.1.1,84.90628412397484,
,,stimoli/01.full/F01-Disgust-Face Forward.wmv,disgusted,full,femmina,1,6,720,576,,,,,,,,,,,,,,,,,1,0,1,0,,,,,0,19,19,36,147.0947570770121,disgusto,101.24228365658294,disgusto,3,,,,,,,,,,disgusted,[-341.0],[55.0],[1],[0],[0],[2.0784849075751026],['disgusto_3'],0.010521528626668442,None,0.0,soddisfazione,256.4995126701024,neutral,1,[256.0],[0.0],[1],[0],[0],[0.4284833681206237],['neutral_5'],0.0007010931406057352,None,,,07,001,healthy,23,f,17,1,aurora,2022-03-31_08h56.38.359,pilot_AIM1,2022.1.1,84.90628412397484,
,,stimoli/02.subtle/JF1_Surprise.wmv,surprised,subtle,femmina,5,10,1646,926,,,,,,,,,,,,,,,,,1,0,1,0,,,,,0,20,20,20,-56.54049774660934,interesse,137.84411485442533,interesse,4,,,,,,,,,,surprised,[-181.0],[-115.0],[1],[0],[0],[4.270284555296712],['interesse_4'],0.010873037356077475,None,1.4256187912225866,soddisfazione,256.5989088051623,invidia,2,[186.0],[11.0],[1],[0],[0],[6.303990906956642],['invidia_6'],0.0004887767368018103,None,,,07,001,healthy,23,f,17,1,aurora,2022-03-31_08h56.38.359,pilot_AIM1,2022.1.1,84.90628412397484,
,,stimoli/01.full/M03-Neutral-Face Forward.wmv,neutral,full,maschio,4,6,720,576,,,,,,,,,,,,,,,,,1,0,1,0,,,,,0,21,21,55,-135.0,vergogna,1.4142135623730951,neutral,1,,,,,,,,,,neutral,[-257.0],[-1.0],[1],[0],[0],[0.6274802853633901],['neutral_1'],0.010558732105209856,None,0.0,soddisfazione,256.4995126701024,neutral,1,[256.0],[0.0],[1],[0],[0],[0.324633385375364],['neutral_5'],0.0007273921514752146,None,,,07,001,healthy,23,f,17,1,aurora,2022-03-31_08h56.38.359,pilot_AIM1,2022.1.1,84.90628412397484,
,,stimoli/01.full/F01-Fear-Face Forward.wmv,fear,full,femmina,1,6,720,576,,,,,,,,,,,,,,,,,1,0,1,0,,,,,0,22,22,28,-122.47119229084849,paura,143.42245291445826,paura,4,,,,,,,,,,fear,[-333.0],[-121.0],[1],[0],[0],[2.8099296725965814],['paura_4'],0.010575088807172506,None,-7.431407971172507,soglievo,265.6501458685841,sorpresa,2,[273.0],[-69.0],[1],[0],[0],[1.9004040426070787],['sorpresa_6'],0.0005452233940559381,None,,,07,001,healthy,23,f,17,1,aurora,2022-03-31_08h56.38.359,pilot_AIM1,2022.1.1,84.90628412397484,
,,stimoli/02.subtle/JM1_Neutral.wmv,neutral,subtle,maschio,7,10,1646,926,,,,,,,,,,,,,,,,,1,0,1,0,,,,,0,23,23,26,0.0,soddisfazione,0.0,neutral,1,,,,,,,,,,neutral,[-256.0],[0.0],[1],[0],[0],[0.8531245149115421],['neutral_1'],0.010843210429129613,None,0.0,soddisfazione,256.4995126701024,neutral,1,[256.0],[0.0],[1],[0],[0],[0.22834533038621885],['neutral_5'],0.0007655577890091081,None,,,07,001,healthy,23,f,17,1,aurora,2022-03-31_08h56.38.359,pilot_AIM1,2022.1.1,84.90628412397484,
,,stimoli/02.subtle/JF2_Anger.wmv,angry,subtle,femmina,6,9,1646,926,,,,,,,,,,,,,,,,,1,0,1,0,,,,,0,24,24,5,167.53506715793503,invidia,97.29337079164233,invidia,3,,,,,,,,,,angry,[-351.0],[21.0],[1],[0],[0],[2.5242108051731975],['invidia_3'],0.010939105602801646,None,7.422022913187143,soddisfazione,265.3789742990202,orgoglio,2,[266.0],[68.0],[1],[0],[0],[3.3994960852960503],['orgoglio_6'],0.0007171291229042254,None,,,07,001,healthy,23,f,17,1,aurora,2022-03-31_08h56.38.359,pilot_AIM1,2022.1.1,84.90628412397484,
,,stimoli/02.subtle/JM1_Fear.wmv,fear,subtle,maschio,7,10,1646,926,,,,,,,,,,,,,,,,,1,0,1,0,,,,,0,25,25,2,-126.3843518158359,paura,70.80254232723568,paura,2,,,,,,,,,,fear,[-298.0],[-57.0],[1],[0],[0],[3.71474585533997],['paura_2'],0.010974384763358103,None,0.0,soddisfazione,256.4995126701024,neutral,1,[256.0],[0.0],[1],[0],[0],[0.7233937398091257],['neutral_5'],0.0005202072616157238,None,,,07,001,healthy,23,f,17,1,aurora,2022-03-31_08h56.38.359,pilot_AIM1,2022.1.1,84.90628412397484,
,,stimoli/01.full/F03-Anger-Face Forward.wmv,angry,full,femmina,2,6,720,576,,,,,,,,,,,,,,,,,1,0,1,0,,,,,0,26,26,33,101.53462065364472,rabbia,100.0199980003999,rabbia,3,,,,,,,,,,angry,[-276.0],[98.0],[1],[0],[0],[1.6757736078523067],['rabbia_3'],0.010486890904985557,None,0.0,soddisfazione,256.4995126701024,neutral,1,[256.0],[0.0],[1],[0],[0],[0.3349531813464637],['neutral_5'],0.0006440050442506617,None,,,07,001,healthy,23,f,17,1,aurora,2022-03-31_08h56.38.359,pilot_AIM1,2022.1.1,84.90628412397484,
,,stimoli/01.full/M03-Joy-Face Forward.wmv,happy,full,maschio,4,6,720,576,,,,,,,,,,,,,,,,,1,0,1,0,,,,,0,27,27,43,34.658354705521106,gioia,98.4733466477097,gioia,3,,,,,,,,,,happy,[-175.0],[56.0],[1],[0],[0],[5.056844349625408],['gioia_3'],0.010567391535914794,None,-1.389919511618165,soglievo,257.00778198334774,sollievo,2,[321.0],[-14.0],[1],[0],[0],[3.4560527494013513],['sollievo_6'],0.0007517668445871095,None,,,07,001,healthy,23,f,17,1,aurora,2022-03-31_08h56.38.359,pilot_AIM1,2022.1.1,84.90628412397484,
,,stimoli/02.subtle/JF1_Disgust.wmv,disgusted,subtle,femmina,5,10,1646,926,,,,,,,,,,,,,,,,,1,0,1,0,,,,,0,28,28,8,149.31482691040486,disgusto,105.8158778255891,disgusto,3,,,,,,,,,,disgusted,[-347.0],[54.0],[1],[0],[0],[2.256683797372034],['disgusto_3'],0.010992024344204765,None,0.0,soddisfazione,256.4995126701024,neutral,1,[256.0],[0.0],[1],[0],[0],[0.33135534838493186],['neutral_5'],0.00042912288245133823,None,,,07,001,healthy,23,f,17,1,aurora,2022-03-31_08h56.38.359,pilot_AIM1,2022.1.1,84.90628412397484,
,,stimoli/02.subtle/JM1_Anger.wmv,angry,subtle,maschio,7,10,1646,926,,,,,,,,,,,,,,,,,1,0,1,0,,,,,0,29,29,6,104.03624346792648,rabbia,98.95453501482385,rabbia,3,,,,,,,,,,angry,[-280.0],[96.0],[1],[0],[0],[3.2903260051029974],['rabbia_3'],0.01094551999540272,None,2.7791668640720806,soddisfazione,257.0836439760414,invidia,3,[156.0],[20.0],[1],[0],[0],[2.6307339861477885],['invidia_7'],0.000731240787445131,None,,,07,001,healthy,23,f,17,1,aurora,2022-03-31_08h56.38.359,pilot_AIM1,2022.1.1,84.90628412397484,
,,stimoli/02.subtle/JF1_Anger.wmv,angry,subtle,femmina,5,10,1646,926,,,,,,,,,,,,,,,,,1,0,1,0,,,,,0,30,30,4,171.06940989958102,invidia,70.8590149522275,invidia,2,,,,,,,,,,angry,[-326.0],[11.0],[1],[0],[0],[3.9167228995106598],['invidia_2'],0.01098304419338092,None,0.0,soddisfazione,256.4995126701024,neutral,1,[256.0],[0.0],[1],[0],[0],[0.43791284636108685],['neutral_5'],0.00047819298879403505,None,,,07,001,healthy,23,f,17,1,aurora,2022-03-31_08h56.38.359,pilot_AIM1,2022.1.1,84.90628412397484,
,,stimoli/01.full/F03-Joy-Face Forward.wmv,happy,full,femmina,2,6,720,576,,,,,,,,,,,,,,,,,1,0,1,0,,,,,0,31,31,41,35.134193056915635,gioia,99.04544411531506,gioia,3,,,,,,,,,,happy,[-175.0],[57.0],[1],[0],[0],[3.6204921250496227],['gioia_3'],0.010582465358766058,None,-2.227562087522824,soglievo,257.8235830951079,sollievo,3,[361.0],[-24.0],[1],[0],[0],[3.668871400403077],['sollievo_7'],0.0005246973364592122,None,,,07,001,healthy,23,f,17,1,aurora,2022-03-31_08h56.38.359,pilot_AIM1,2022.1.1,84.90628412397484,
,,stimoli/01.full/M03-Disgust-Face Forward.wmv,disgusted,full,maschio,4,6,720,576,,,,,,,,,,,,,,,,,1,0,1,0,,,,,0,32,32,39,123.69006752597979,disprezzo,104.5609869884557,disprezzo,3,,,,,,,,,,disgusted,[-314.0],[87.0],[1],[0],[0],[2.030520643440923],['disprezzo_3'],0.010568674414116686,None,-0.1119056770662069,soglievo,256.5014619841376,neutral,1,[256.0],[-1.0],[1],[0],[0],[0.3238582059966575],['neutral_5'],0.0006978859437367646,None,,,07,001,healthy,23,f,17,1,aurora,2022-03-31_08h56.38.359,pilot_AIM1,2022.1.1,84.90628412397484,
,,stimoli/02.subtle/JM2_Fear.wmv,fear,subtle,maschio,8,10,1646,926,,,,,,,,,,,,,,,,,1,0,1,0,,,,,0,33,33,3,-123.09169993868245,paura,106.23088063270491,paura,3,,,,,,,,,,fear,[-314.0],[-89.0],[1],[0],[0],[5.940324658080954],['paura_3'],0.01087496167383506,None,-7.327952145549719,soglievo,265.1226131434284,sorpresa,2,[265.0],[-67.0],[1],[0],[0],[2.0781199286207084],['sorpresa_6'],0.0005035298404436617,None,,,07,001,healthy,23,f,17,1,aurora,2022-03-31_08h56.38.359,pilot_AIM1,2022.1.1,84.90628412397484,
,,stimoli/01.full/F03-Fear-Face Forward.wmv,fear,full,femmina,2,6,720,576,,,,,,,,,,,,,,,,,1,0,1,0,,,,,0,34,34,29,-126.5630958685941,paura,149.40214188558343,paura,4,,,,,,,,,,fear,[-345.0],[-120.0],[1],[0],[0],[1.5375787206362475],['paura_4'],0.010571560891094123,None,-7.594643368591445,soglievo,265.90411805761863,sorpresa,2,[269.0],[-70.0],[1],[0],[0],[1.3589850249586561],['sorpresa_6'],0.0006709454946758342,None,,,07,001,healthy,23,f,17,1,aurora,2022-03-31_08h56.38.359,pilot_AIM1,2022.1.1,84.90628412397484,
,,stimoli/02.subtle/JM2_Surprise.wmv,surprised,subtle,maschio,8,10,1646,926,,,,,,,,,,,,,,,,,1,0,1,0,,,,,0,35,35,23,-79.69515353123397,sorpresa,44.721359549995796,sorpresa,1,,,,,,,,,,surprised,[-248.0],[-44.0],[1],[0],[0],[1.876358728769901],['sorpresa_1'],0.010991382904649072,None,0.0,soddisfazione,256.4995126701024,neutral,1,[256.0],[0.0],[1],[0],[0],[1.0776603373715261],['neutral_5'],0.0005904448639739712,None,,,07,001,healthy,23,f,17,1,aurora,2022-03-31_08h56.38.359,pilot_AIM1,2022.1.1,84.90628412397484,
,,stimoli/01.full/F01-Surprise-Face Forward.wmv,surprised,full,femmina,1,6,720,576,,,,,,,,,,,,,,,,,1,0,1,0,,,,,0,36,36,48,-80.92524197899132,sorpresa,145.82523787054146,sorpresa,4,,,,,,,,,,surprised,[-233.0],[-144.0],[1],[0],[0],[1.4410603889427875],['sorpresa_4'],0.0105430168428029,None,0.0,soddisfazione,256.50341128335896,neutral,1,[258.0],[0.0],[1],[0],[0],[0.3716521680007645],['neutral_5'],0.0007671613871025329,None,,,07,001,healthy,23,f,17,1,aurora,2022-03-31_08h56.38.359,pilot_AIM1,2022.1.1,84.90628412397484,
,,stimoli/02.subtle/JF2_Sadness.wmv,sad,subtle,femmina,6,8,1646,926,,,,,,,,,,,,,,,,,1,0,1,0,,,,,0,37,37,17,-166.17134902771986,colpa,66.94027188471824,colpa,2,,,,,,,,,,sad,[-321.0],[-16.0],[1],[0],[0],[2.643826724156952],['colpa_2'],0.01095514158532751,None,0.0,soddisfazione,256.4995126701024,neutral,1,[256.0],[0.0],[1],[0],[0],[0.3799369978332834],['neutral_5'],0.0004788344276676071,None,,,07,001,healthy,23,f,17,1,aurora,2022-03-31_08h56.38.359,pilot_AIM1,2022.1.1,84.90628412397484,
,,stimoli/01.full/M03-Fear-Face Forward.wmv,fear,full,maschio,4,6,720,576,,,,,,,,,,,,,,,,,1,0,1,0,,,,,0,38,38,31,-168.6900675259798,colpa,101.9803902718557,colpa,3,,,,,,,,,,fear,[-356.0],[-20.0],[1],[0],[0],[1.9945076761036944],['colpa_3'],0.010574768087280972,None,0.0,soddisfazione,256.4995126701024,neutral,1,[256.0],[0.0],[1],[0],[0],[0.47547553101549056],['neutral_5'],0.0006282897820710787,None,,,07,001,healthy,23,f,17,1,aurora,2022-03-31_08h56.38.359,pilot_AIM1,2022.1.1,84.90628412397484,
,,stimoli/02.subtle/JF2_Fear.wmv,fear,subtle,femmina,6,10,1646,926,,,,,,,,,,,,,,,,,1,0,1,0,,,,,0,39,39,1,-129.6990734834743,paura,68.8839603971781,paura,2,,,,,,,,,,fear,[-300.0],[-53.0],[1],[0],[0],[1.8290288480902746],['paura_2'],0.010950972229693434,None,0.0,soddisfazione,256.4995126701024,neutral,1,[256.0],[0.0],[1],[0],[0],[0.38232379342025524],['neutral_5'],0.0007751793777970306,None,,,07,001,healthy,23,f,17,1,aurora,2022-03-31_08h56.38.359,pilot_AIM1,2022.1.1,84.90628412397484,
,,stimoli/02.subtle/JF1_Sadness.wmv,sad,subtle,femmina,5,10,1646,926,,,,,,,,,,,,,,,,,1,0,1,0,,,,,0,40,40,16,-100.00797980144135,tristezza,69.05070600652827,tristezza,2,,,,,,,,,,sad,[-268.0],[-68.0],[1],[0],[0],[6.166317830601201],['tristezza_2'],0.010907995796969772,None,-1.2267028838161125,soglievo,256.60670295220274,colpa,1,[211.0],[-10.0],[1],[0],[0],[1.004248252398611],['colpa_5'],0.0007642749101250956,None,,,07,001,healthy,23,f,17,1,aurora,2022-03-31_08h56.38.359,pilot_AIM1,2022.1.1,84.90628412397484,
,,stimoli/02.subtle/JF1_Happiness.wmv,happy,subtle,femmina,5,10,1646,926,,,,,,,,,,,,,,,,,1,0,1,0,,,,,0,41,41,12,-10.992507580267727,soglievo,141.59802258506295,sollievo,4,,,,,,,,,,happy,[-117.0],[-27.0],[1],[0],[0],[1.90323599705971],['sollievo_4'],0.010849945541849593,None,1.5224529992610087,soddisfazione,257.1730934604163,soddisfazione,3,[346.0],[16.0],[1],[0],[0],[2.251307894706315],['soddisfazione_7'],0.0006799256439080636,None,,,07,001,healthy,23,f,17,1,aurora,2022-03-31_08h56.38.359,pilot_AIM1,2022.1.1,84.90628412397484,
,,stimoli/01.full/F03-Disgust-Face Forward.wmv,disgusted,full,femmina,2,6,720,576,,,,,,,,,,,,,,,,,1,0,1,0,,,,,0,42,42,37,125.86284898586129,disprezzo,102.41581909060729,disprezzo,3,,,,,,,,,,disgusted,[-316.0],[83.0],[1],[0],[0],[2.8423961221146783],['disprezzo_3'],0.010572202330422442,None,4.638837140583785,soddisfazione,259.0463279029448,disgusto,2,[200.0],[37.0],[1],[0],[0],[0.8519436251835941],['disgusto_6'],0.0005067370361757639,None,,,07,001,healthy,23,f,17,1,aurora,2022-03-31_08h56.38.359,pilot_AIM1,2022.1.1,84.90628412397484,
,,stimoli/02.subtle/JM2_Sadness.wmv,sad,subtle,maschio,8,10,1646,926,,,,,,,,,,,,,,,,,1,0,1,0,,,,,0,43,43,19,-142.50734666694967,vergogna,92.00543462209176,vergogna,3,,,,,,,,,,sad,[-329.0],[-56.0],[1],[0],[0],[2.4200211803254206],['vergogna_3'],0.011008381045485294,None,0.0,soddisfazione,256.4995126701024,neutral,1,[256.0],[0.0],[1],[0],[0],[0.43915884217631174],['neutral_5'],0.0005410540388766094,None,,,07,001,healthy,23,f,17,1,aurora,2022-03-31_08h56.38.359,pilot_AIM1,2022.1.1,84.90628412397484,
,,stimoli/02.subtle/JM1_Disgust.wmv,disgusted,subtle,maschio,7,10,1646,926,,,,,,,,,,,,,,,,,1,0,1,0,,,,,0,44,44,10,149.17233770013198,disgusto,72.20110802473879,disgusto,2,,,,,,,,,,disgusted,[-318.0],[37.0],[1],[0],[0],[2.4770063258742994],['disgusto_2'],0.010948727192499064,None,0.0,soddisfazione,256.5014619841376,neutral,1,[257.0],[0.0],[1],[0],[0],[0.41976075597494855],['neutral_5'],0.0006144988374217064,None,,,07,001,healthy,23,f,17,1,aurora,2022-03-31_08h56.38.359,pilot_AIM1,2022.1.1,84.90628412397484,
,,stimoli/01.full/M02-Neutral-Face Forward.wmv,neutral,full,maschio,3,6,720,576,,,,,,,,,,,,,,,,,1,0,1,0,,,,,0,45,45,54,0.0,soddisfazione,0.0,neutral,1,,,,,,,,,,neutral,[-256.0],[0.0],[1],[0],[0],[0.5714447906789246],['neutral_1'],0.010556166348123952,None,0.0,soddisfazione,256.4995126701024,neutral,1,[256.0],[0.0],[1],[0],[0],[0.22767470561166192],['neutral_5'],0.0005182829445402604,None,,,07,001,healthy,23,f,17,1,aurora,2022-03-31_08h56.38.359,pilot_AIM1,2022.1.1,84.90628412397484,
,,stimoli/01.full/M02-Disgust-Face Forward.wmv,disgusted,full,maschio,3,6,720,576,,,,,,,,,,,,,,,,,1,0,1,0,,,,,0,46,46,38,146.4695303328669,disgusto,99.56907150315303,disgusto,3,,,,,,,,,,disgusted,[-339.0],[55.0],[1],[0],[0],[1.4404567945739473],['disgusto_3'],0.010562901461071306,None,0.0,soddisfazione,256.4995126701024,neutral,1,[256.0],[0.0],[1],[0],[0],[0.4759248592363292],['neutral_5'],0.0006023114906383853,None,,,07,001,healthy,23,f,17,1,aurora,2022-03-31_08h56.38.359,pilot_AIM1,2022.1.1,84.90628412397484,
,,stimoli/02.subtle/JM2_Anger.wmv,angry,subtle,maschio,8,10,1646,926,,,,,,,,,,,,,,,,,1,0,1,0,,,,,0,47,47,7,99.65989307844234,rabbia,95.35197952848173,rabbia,3,,,,,,,,,,angry,[-272.0],[94.0],[1],[0],[0],[1.843025374055287],['rabbia_3'],0.010975346921895834,None,0.0,soddisfazione,256.4995126701024,neutral,1,[256.0],[0.0],[1],[0],[0],[0.639154480389152],['neutral_5'],0.0007524082839154289,None,,,07,001,healthy,23,f,17,1,aurora,2022-03-31_08h56.38.359,pilot_AIM1,2022.1.1,84.90628412397484,
,,stimoli/02.subtle/JF2_Surprise.wmv,surprised,subtle,femmina,6,10,1646,926,,,,,,,,,,,,,,,,,1,0,1,0,,,,,0,48,48,21,-78.69006752597979,sorpresa,66.2872536767062,sorpresa,2,,,,,,,,,,surprised,[-243.0],[-65.0],[1],[0],[0],[2.2531122634213716],['sorpresa_2'],0.01087207519731237,None,0.0,soddisfazione,256.4995126701024,neutral,1,[256.0],[0.0],[1],[0],[0],[0.3241875850708311],['neutral_5'],0.0006298933803918771,None,,,07,001,healthy,23,f,17,1,aurora,2022-03-31_08h56.38.359,pilot_AIM1,2022.1.1,84.90628412397484,
,,stimoli/01.full/F01-Anger-Face Forward.wmv,angry,full,femmina,1,6,720,576,,,,,,,,,,,,,,,,,1,0,1,0,,,,,0,49,49,32,171.63411387596742,invidia,137.46272221951665,invidia,4,,,,,,,,,,angry,[-392.0],[20.0],[1],[0],[0],[1.8899816163502692],['invidia_4'],0.010474703558884357,None,0.0,soddisfazione,256.4995126701024,neutral,1,[256.0],[0.0],[1],[0],[0],[0.6387795591263057],['neutral_5'],0.0005227730184742541,None,,,07,001,healthy,23,f,17,1,aurora,2022-03-31_08h56.38.359,pilot_AIM1,2022.1.1,84.90628412397484,
,,stimoli/01.full/M02-Fear-Face Forward.wmv,fear,full,maschio,3,6,720,576,,,,,,,,,,,,,,,,,1,0,1,0,,,,,0,50,50,30,-119.88652694042405,paura,100.34440691936945,paura,3,,,,,,,,,,fear,[-306.0],[-87.0],[1],[0],[0],[1.6191954555310986],['paura_3'],0.01051318991540029,None,0.0,soddisfazione,256.4995126701024,neutral,1,[256.0],[0.0],[1],[0],[0],[0.32315230206131673],['neutral_5'],0.0006901886727064266,None,,,07,001,healthy,23,f,17,1,aurora,2022-03-31_08h56.38.359,pilot_AIM1,2022.1.1,84.90628412397484,
,,stimoli/02.subtle/JM2_Disgust.wmv,disgusted,subtle,maschio,8,10,1646,926,,,,,,,,,,,,,,,,,1,0,1,0,,,,,0,51,51,11,169.48737283007864,invidia,98.65596788841515,invidia,3,,,,,,,,,,disgusted,[-353.0],[18.0],[1],[0],[0],[2.019145679842495],['invidia_3'],0.010987213549469743,None,0.0,soddisfazione,256.4995126701024,neutral,1,[256.0],[0.0],[1],[0],[0],[0.6868679417625572],['neutral_5'],0.0007777451360198029,None,,,07,001,healthy,23,f,17,1,aurora,2022-03-31_08h56.38.359,pilot_AIM1,2022.1.1,84.90628412397484,
,,stimoli/01.full/M02-Surprise-Face Forward.wmv,surprised,full,maschio,3,6,720,576,,,,,,,,,,,,,,,,,1,0,1,0,,,,,0,52,52,50,-75.09424147644502,sorpresa,143.8401890988746,sorpresa,4,,,,,,,,,,surprised,[-219.0],[-139.0],[1],[0],[0],[2.3588095913132747],['sorpresa_4'],0.010489456661616714,None,0.0,soddisfazione,256.4995126701024,neutral,1,[256.0],[0.0],[1],[0],[0],[0.4761394206775549],['neutral_5'],0.000588199825870106,None,,,07,001,healthy,23,f,17,1,aurora,2022-03-31_08h56.38.359,pilot_AIM1,2022.1.1,84.90628412397484,
,,stimoli/01.full/M02-Anger-Face Forward.wmv,angry,full,maschio,3,6,720,576,,,,,,,,,,,,,,,,,1,0,1,0,,,,,0,53,53,34,103.43102887068167,rabbia,68.8839603971781,rabbia,2,,,,,,,,,,angry,[-272.0],[67.0],[1],[0],[0],[5.834140477769324],['rabbia_2'],0.010579578882243368,None,0.0,soddisfazione,256.4995126701024,neutral,1,[256.0],[0.0],[1],[0],[0],[2.100458051795158],['neutral_5'],0.00032296468134518364,None,,,07,001,healthy,23,f,17,1,aurora,2022-03-31_08h56.38.359,pilot_AIM1,2022.1.1,84.90628412397484,
,,stimoli/01.full/F03-Neutral-Face Forward.wmv,neutral,full,femmina,2,6,720,576,,,,,,,,,,,,,,,,,1,0,1,0,,,,,0,54,54,53,0.0,soddisfazione,0.0,neutral,1,,,,,,,,,,neutral,[-256.0],[0.0],[1],[0],[0],[0.6778502675442724],['neutral_1'],0.01048785306420541,None,0.0,soddisfazione,256.4995126701024,neutral,1,[256.0],[0.0],[1],[0],[0],[0.42871460698370356],['neutral_5'],0.0005914070220569556,None,,,07,001,healthy,23,f,17,1,aurora,2022-03-31_08h56.38.359,pilot_AIM1,2022.1.1,84.90628412397484,
,,stimoli/01.full/M02-Joy-Face Forward.wmv,happy,full,maschio,3,6,720,576,,,,,,,,,,,,,,,,,1,0,1,0,,,,,0,55,55,42,9.668668661083636,soddisfazione,136.94524453225822,soddisfazione,4,,,,,,,,,,happy,[-121.0],[23.0],[1],[0],[0],[2.994767779734957],['soddisfazione_4'],0.010572523050086602,None,0.0,soddisfazione,256.4995126701024,neutral,1,[256.0],[0.0],[1],[0],[0],[0.3231782803527494],['neutral_5'],0.000657154550026462,None,,,07,001,healthy,23,f,17,1,aurora,2022-03-31_08h56.38.359,pilot_AIM1,2022.1.1,84.90628412397484,
