emotion_practice,emotion_comp,file,file_emotion,file_emotion_level,file_gender,file_id,file_duration,size_w,size_h,practice.thisRepN,practice.thisTrialN,practice.thisN,practice.thisIndex,istr_loop_practice.thisRepN,istr_loop_practice.thisTrialN,istr_loop_practice.thisN,istr_loop_practice.thisIndex,loop_emotion_identication.thisRepN,loop_emotion_identication.thisTrialN,loop_emotion_identication.thisN,loop_emotion_identication.thisIndex,loop_practice.thisRepN,loop_practice.thisTrialN,loop_practice.thisN,loop_practice.thisIndex,random_by_pt_num.thisRepN,random_by_pt_num.thisTrialN,random_by_pt_num.thisN,random_by_pt_num.thisIndex,loop_itr_exp.thisRepN,loop_itr_exp.thisTrialN,loop_itr_exp.thisN,loop_itr_exp.thisIndex,loop_exp.thisRepN,loop_exp.thisTrialN,loop_exp.thisN,loop_exp.thisIndex,wheelresp_angle,wheelresp_cake,wheelresp_norm,wheelresp_emotion,wheelresp_level,Wheelresp.x,Wheelresp.y,Wheelresp.leftButton,Wheelresp.midButton,Wheelresp.rightButton,Wheelresp.time,Wheelresp.clicked_name,Wheelresp.started,Wheelresp.stopped,file_emotion,wheelresp.x,wheelresp.y,wheelresp.leftButton,wheelresp.midButton,wheelresp.rightButton,wheelresp.time,wheelresp.clicked_name,wheelresp.started,wheelresp.stopped,compound_angle,compound_cake,compound_norm,compound_emotion,compound_level,compound.x,compound.y,compound.leftButton,compound.midButton,compound.rightButton,compound.time,compound.clicked_name,compound.started,compound.stopped,kb_end_training.keys,kb_end_training.rt,participant,session,group,age,gender,education,practice,experimenter,date,expName,psychopyVersion,frameRate,
,,,,,,,,,,0,0,0,0,0,0,0,0,,,,,,,,,,,,,,,,,,,,,,,,,,,,,,,,,,,,,,,,,,,,,,,,,,,,,,,,,,,,,04,001,healthy,24,f,18,1,virginia,2022-03-25_13h16.35.388,pilot_AIM1,2022.1.1,84.98304439459399,
DISPREZZO,INVIDIA,,,,,,,,,0,0,0,0,,,,,0,0,0,5,,,,,,,,,,,,,,,,,123.69006752597979,disprezzo,209.1219739769114,Disprezzo,4,[-116.0],[174.0],[1],[0],[0],[15.076290247897703],['Disprezzo_4'],0.011173364556384513,None,,,,,,,,,,,,,,,,,,,,,,,,,,,04,001,healthy,24,f,18,1,virginia,2022-03-25_13h16.35.388,pilot_AIM1,2022.1.1,84.98304439459399,
SORPRESA,GIOIA,,,,,,,,,0,0,0,0,,,,,0,1,1,12,,,,,,,,,,,,,,,,,-77.31961650818018,sorpresa,205.0,Sorpresa,4,[45.0],[-200.0],[1],[0],[0],[3.9816981484071334],['Sorpresa_4'],0.011187124384719027,None,,,,,,,,,,,,,,,,,,,,,,,,,,,04,001,healthy,24,f,18,1,virginia,2022-03-25_13h16.35.388,pilot_AIM1,2022.1.1,84.98304439459399,
GIOIA,SODDISFAZIONE,,,,,,,,,0,0,0,0,,,,,0,2,2,2,,,,,,,,,,,,,,,,,35.73547601486702,gioia,202.03960007879644,Gioia,4,[164.0],[118.0],[1],[0],[0],[2.064058720547166],['Gioia_4'],0.01119160432881472,None,,,,,,,,,,,,,,,,,,,,,,,,,,,04,001,healthy,24,f,18,1,virginia,2022-03-25_13h16.35.388,pilot_AIM1,2022.1.1,84.98304439459399,
INTERESSE,SORPRESA,,,,,,,,,0,0,0,0,,,,,0,3,3,13,,,,,,,,,,,,,,,,,-56.309932474020215,interesse,194.6997688750554,Interesse,4,[108.0],[-162.0],[1],[0],[0],[2.146591450538722],['Interesse_4'],0.01115000484793427,None,,,,,,,,,,,,,,,,,,,,,,,,,,,04,001,healthy,24,f,18,1,virginia,2022-03-25_13h16.35.388,pilot_AIM1,2022.1.1,84.98304439459399,
SOLLIEVO,GIOIA,,,,,,,,,0,0,0,0,,,,,0,4,4,15,,,,,,,,,,,,,,,,,-9.125008647935974,soglievo,195.47378340841516,Sollievo,4,[193.0],[-31.0],[1],[0],[0],[1.5698597681500814],['Sollievo_4'],0.011157684752106434,None,,,,,,,,,,,,,,,,,,,,,,,,,,,04,001,healthy,24,f,18,1,virginia,2022-03-25_13h16.35.388,pilot_AIM1,2022.1.1,84.98304439459399,
EUFORIA,GIOIA,,,,,,,,,0,0,0,0,,,,,0,5,5,1,,,,,,,,,,,,,,,,,58.98893069625842,euforia,207.68485741623053,Euforia,4,[107.0],[178.0],[1],[0],[0],[1.3698475443026155],['Euforia_4'],0.011167284632279006,None,,,,,,,,,,,,,,,,,,,,,,,,,,,04,001,healthy,24,f,18,1,virginia,2022-03-25_13h16.35.388,pilot_AIM1,2022.1.1,84.98304439459399,
ORGOGLIO,NEUTRO,,,,,,,,,0,0,0,0,,,,,0,6,6,3,,,,,,,,,,,,,,,,,81.29777621005321,orgoglio,198.2826265712657,Orgoglio,4,[30.0],[196.0],[1],[0],[0],[1.4993348883005524],['Orgoglio_4'],0.011184244420576306,None,,,,,,,,,,,,,,,,,,,,,,,,,,,04,001,healthy,24,f,18,1,virginia,2022-03-25_13h16.35.388,pilot_AIM1,2022.1.1,84.98304439459399,
VERGOGNA,TRISTEZZA,,,,,,,,,0,0,0,0,,,,,0,7,7,9,,,,,,,,,,,,,,,,,-148.26332874340633,vergogna,203.4158302591025,Vergogna,4,[-173.0],[-107.0],[1],[0],[0],[2.064130719648631],['Vergogna_4'],0.011183924424642555,None,,,,,,,,,,,,,,,,,,,,,,,,,,,04,001,healthy,24,f,18,1,virginia,2022-03-25_13h16.35.388,pilot_AIM1,2022.1.1,84.98304439459399,
RABBIA,DISPREZZO,,,,,,,,,0,0,0,0,,,,,0,8,8,4,,,,,,,,,,,,,,,,,100.25416467790419,rabbia,202.23006700290637,Rabbia,4,[-36.0],[199.0],[1],[0],[0],[1.7229573774919231],['Rabbia_4'],0.011199924224968072,None,,,,,,,,,,,,,,,,,,,,,,,,,,,04,001,healthy,24,f,18,1,virginia,2022-03-25_13h16.35.388,pilot_AIM1,2022.1.1,84.98304439459399,
SPERANZA,NEUTRO,,,,,,,,,0,0,0,0,,,,,0,9,9,14,,,,,,,,,,,,,,,,,-34.30778784471597,speranza,205.80573364218986,Speranza,4,[170.0],[-116.0],[1],[0],[0],[3.064638873306876],['Speranza_4'],0.011301042962998054,None,,,,,,,,,,,,,,,,,,,,,,,,,,,04,001,healthy,24,f,18,1,virginia,2022-03-25_13h16.35.388,pilot_AIM1,2022.1.1,84.98304439459399,
DISGUSTO,NEUTRO,,,,,,,,,0,0,0,0,,,,,0,10,10,6,,,,,,,,,,,,,,,,,142.79207807821842,disgusto,203.40353979220717,Disgusto,4,[-162.0],[123.0],[1],[0],[0],[1.4995035261960084],['Disgusto_4'],0.011199604228977478,None,,,,,,,,,,,,,,,,,,,,,,,,,,,04,001,healthy,24,f,18,1,virginia,2022-03-25_13h16.35.388,pilot_AIM1,2022.1.1,84.98304439459399,
INVIDIA,NEUTRO,,,,,,,,,0,0,0,0,,,,,0,11,11,7,,,,,,,,,,,,,,,,,170.7273982227997,invidia,198.59506539690256,Invidia,4,[-196.0],[32.0],[1],[0],[0],[3.4759531001053574],['Invidia_4'],0.011178804488508831,None,,,,,,,,,,,,,,,,,,,,,,,,,,,04,001,healthy,24,f,18,1,virginia,2022-03-25_13h16.35.388,pilot_AIM1,2022.1.1,84.98304439459399,
TRISTEZZA,NEUTRO,,,,,,,,,0,0,0,0,,,,,0,12,12,11,,,,,,,,,,,,,,,,,-103.22455119221354,tristezza,205.44829033116824,Tristezza,4,[-47.0],[-200.0],[1],[0],[0],[4.323155647017529],['Tristezza_4'],0.011178484492518237,None,,,,,,,,,,,,,,,,,,,,,,,,,,,04,001,healthy,24,f,18,1,virginia,2022-03-25_13h16.35.388,pilot_AIM1,2022.1.1,84.98304439459399,
PAURA,NEUTRO,,,,,,,,,0,0,0,0,,,,,0,13,13,10,,,,,,,,,,,,,,,,,-122.33937707974127,paura,200.02499843769527,Paura,4,[-107.0],[-169.0],[1],[0],[0],[1.4287789688384578],['Paura_4'],0.01119064434072925,None,,,,,,,,,,,,,,,,,,,,,,,,,,,04,001,healthy,24,f,18,1,virginia,2022-03-25_13h16.35.388,pilot_AIM1,2022.1.1,84.98304439459399,
COLPA,VERGOGNA,,,,,,,,,0,0,0,0,,,,,0,14,14,8,,,,,,,,,,,,,,,,,-166.03362939928022,colpa,198.8793604173143,Colpa,4,[-193.0],[-48.0],[1],[0],[0],[1.8522338441215993],['Colpa_4'],0.011166324644307224,None,,,,,,,,,,,,,,,,,,,,,,,,,,,04,001,healthy,24,f,18,1,virginia,2022-03-25_13h16.35.388,pilot_AIM1,2022.1.1,84.98304439459399,
SODDISFAZIONE,EUFORIA,,,,,,,,,0,0,0,0,,,,,0,15,15,0,,,,,,,,,,,,,,,,,11.709001101864015,soddisfazione,197.101496696499,Soddisfazione,4,[193.0],[40.0],[1],[0],[0],[2.3463470375889983],['Soddisfazione_4'],0.011170804588346073,None,,,,,,,,,,,,,,,,,,,,,,,,,,,04,001,healthy,24,f,18,1,virginia,2022-03-25_13h16.35.388,pilot_AIM1,2022.1.1,84.98304439459399,
,,stimoli/02.subtle/JF2_Disgust.wmv,disgusted,subtle,femmina,6,10,1646,926,0,0,0,0,,,,,,,,,0,0,0,9,,,,,,,,,,,,,148.35534096290743,disgusto,101.01980003939822,disgusto,3,,,,,,,,,,disgusted,[-342.0],[53.0],[1],[0],[0],[7.146246174847761],['disgusto_3'],0.010732090063470423,None,0.7910157293941884,soddisfazione,256.5852684781416,neutral,1,[251.0],[7.0],[1],[0],[0],[13.578830536194914],['neutral_5'],0.008298584433646283,None,,,04,001,healthy,24,f,18,1,virginia,2022-03-25_13h16.35.388,pilot_AIM1,2022.1.1,84.98304439459399,
,,stimoli/02.subtle/JM2_Fear.wmv,fear,subtle,maschio,8,10,1646,926,0,0,0,0,,,,,,,,,0,1,1,3,,,,,,,,,,,,,-124.99202019855868,paura,73.23933369440222,paura,2,,,,,,,,,,fear,[-298.0],[-60.0],[1],[0],[0],[12.8518840884866],['paura_2'],0.01072569014348801,None,-4.836583445735302,soglievo,260.2614070506805,sorpresa,1,[264.0],[-44.0],[1],[0],[0],[8.850274188578112],['sorpresa_5'],0.0090499350568507,None,,,04,001,healthy,24,f,18,1,virginia,2022-03-25_13h16.35.388,pilot_AIM1,2022.1.1,84.98304439459399,
,,stimoli/01.full/M02-Sadness-Face Forward.wmv,sad,full,maschio,3,6,720,576,0,0,0,0,,,,,,,,,0,2,2,46,,,,,,,,,,,,,-125.53767779197437,paura,103.22790320451152,paura,3,,,,,,,,,,sad,[-316.0],[-84.0],[1],[0],[0],[12.004999617604767],['paura_3'],0.010844408661796479,None,0.3383569692652585,soddisfazione,256.5092590921427,neutral,1,[252.0],[3.0],[1],[0],[0],[13.144793392978443],['neutral_5'],0.009489609569698132,None,,,04,001,healthy,24,f,18,1,virginia,2022-03-25_13h16.35.388,pilot_AIM1,2022.1.1,84.98304439459399,
,,stimoli/01.full/M03-Sadness-Face Forward.wmv,sad,full,maschio,4,6,720,576,0,0,0,0,,,,,,,,,0,3,3,47,,,,,,,,,,,,,-104.82647997035568,tristezza,140.6840431605518,tristezza,4,,,,,,,,,,sad,[-292.0],[-136.0],[1],[0],[0],[2.628242079538893],['tristezza_4'],0.010604091660979975,None,-11.0653652458969,soglievo,274.1988329661525,tristezza,3,[240.0],[-97.0],[1],[0],[0],[10.391799910337056],['tristezza_7'],0.009474889753391835,None,,,04,001,healthy,24,f,18,1,virginia,2022-03-25_13h16.35.388,pilot_AIM1,2022.1.1,84.98304439459399,
,,stimoli/01.full/M02-Disgust-Face Forward.wmv,disgusted,full,maschio,3,6,720,576,,,,,,,,,,,,,,,,,0,0,0,0,,,,,0,0,0,38,144.512537602279,disgusto,132.6386067478093,disgusto,4,,,,,,,,,,disgusted,[-364.0],[77.0],[1],[0],[0],[6.922403848399995],['disgusto_4'],0.010668730854149544,None,10.634760938740312,soddisfazione,270.4329861536865,disprezzo,3,[202.0],[86.0],[1],[0],[0],[1.6380573170446269],['disprezzo_7'],0.008749138810799195,None,n,4.728690437058219,04,001,healthy,24,f,18,1,virginia,2022-03-25_13h16.35.388,pilot_AIM1,2022.1.1,84.98304439459399,
,,stimoli/01.full/F03-Anger-Face Forward.wmv,angry,full,femmina,2,6,720,576,,,,,,,,,,,,,,,,,0,0,0,0,,,,,0,1,1,33,100.55180950619228,rabbia,103.75451797391764,rabbia,3,,,,,,,,,,angry,[-275.0],[102.0],[1],[0],[0],[4.957644688594314],['rabbia_3'],0.01068953059461819,None,2.054572880925691,soddisfazione,256.86961673191325,invidia,2,[190.0],[16.0],[1],[0],[0],[12.650575880812994],['invidia_6'],0.009472009789419644,None,,,04,001,healthy,24,f,18,1,virginia,2022-03-25_13h16.35.388,pilot_AIM1,2022.1.1,84.98304439459399,
,,stimoli/01.full/M03-Surprise-Face Forward.wmv,surprised,full,maschio,4,6,720,576,,,,,,,,,,,,,,,,,0,0,0,0,,,,,0,2,2,51,-77.93511558947458,sorpresa,133.9589489358587,sorpresa,4,,,,,,,,,,surprised,[-228.0],[-131.0],[1],[0],[0],[7.357678736169419],['sorpresa_4'],0.010697530494894636,None,0.5683918646793945,soddisfazione,256.5326489942362,neutral,1,[248.0],[5.0],[1],[0],[0],[3.1916811278196064],['neutral_5'],0.00914945381475718,None,,,04,001,healthy,24,f,18,1,virginia,2022-03-25_13h16.35.388,pilot_AIM1,2022.1.1,84.98304439459399,
,,stimoli/01.full/F01-Fear-Face Forward.wmv,fear,full,femmina,1,6,720,576,,,,,,,,,,,,,,,,,0,0,0,0,,,,,0,3,3,28,-122.13289585998095,paura,142.88806808127822,paura,4,,,,,,,,,,fear,[-332.0],[-121.0],[1],[0],[0],[4.805022273322038],['paura_4'],0.010824248913422707,None,-5.1646235803489065,soglievo,260.78535234939864,no_resp,0,[],[],[],[],[],[],[],0.009432970276520791,20.089581730019972,,,04,001,healthy,24,f,18,1,virginia,2022-03-25_13h16.35.388,pilot_AIM1,2022.1.1,84.98304439459399,
,,stimoli/01.full/M02-Surprise-Face Forward.wmv,surprised,full,maschio,3,6,720,576,,,,,,,,,,,,,,,,,0,0,0,0,,,,,0,4,4,50,-76.35708522400994,sorpresa,105.99056561788883,sorpresa,3,,,,,,,,,,surprised,[-231.0],[-103.0],[1],[0],[0],[4.310707482370617],['sorpresa_3'],0.010728250111469606,None,-0.9860606316471592,soglievo,256.8287367098939,sollievo,2,[325.0],[-10.0],[1],[0],[0],[8.556527774533379],['sollievo_6'],0.0095600086910963,None,,,04,001,healthy,24,f,18,1,virginia,2022-03-25_13h16.35.388,pilot_AIM1,2022.1.1,84.98304439459399,
,,stimoli/02.subtle/JM2_Surprise.wmv,surprised,subtle,maschio,8,10,1646,926,,,,,,,,,,,,,,,,,0,0,0,0,,,,,0,5,5,23,-56.1489896964418,interesse,98.73702446397704,interesse,3,,,,,,,,,,surprised,[-201.0],[-82.0],[1],[0],[0],[3.6049700499737583],['interesse_3'],0.01073720999966099,None,-7.245413560350668,soglievo,265.1339284210906,sorpresa,2,[271.0],[-67.0],[1],[0],[0],[2.90886545735907],['sorpresa_6'],0.008813778004082451,None,,,04,001,healthy,24,f,18,1,virginia,2022-03-25_13h16.35.388,pilot_AIM1,2022.1.1,84.98304439459399,
,,stimoli/02.subtle/JF2_Happiness.wmv,happy,subtle,femmina,6,9,1646,926,,,,,,,,,,,,,,,,,0,0,0,0,,,,,0,6,6,13,30.579226872489016,gioia,102.2154587134451,gioia,3,,,,,,,,,,happy,[-168.0],[52.0],[1],[0],[0],[4.028332766407061],['gioia_3'],0.010718970227344471,None,-1.375620547667743,soglievo,257.01945451657934,sollievo,2,[327.0],[-14.0],[1],[0],[0],[8.485908495861963],['sollievo_6'],0.00955296877884848,None,,,04,001,healthy,24,f,18,1,virginia,2022-03-25_13h16.35.388,pilot_AIM1,2022.1.1,84.98304439459399,
,,stimoli/01.full/F01-Joy-Face Forward.wmv,happy,full,femmina,1,6,720,576,,,,,,,,,,,,,,,,,0,0,0,0,,,,,0,7,7,40,34.658354705521106,gioia,98.4733466477097,gioia,3,,,,,,,,,,happy,[-175.0],[56.0],[1],[0],[0],[5.369466749054936],['gioia_3'],0.010763129675979144,None,1.2862176321101015,soddisfazione,256.9591407208547,soddisfazione,2,[323.0],[13.0],[1],[0],[0],[5.027219180304655],['soddisfazione_6'],0.009634247764779502,None,,,04,001,healthy,24,f,18,1,virginia,2022-03-25_13h16.35.388,pilot_AIM1,2022.1.1,84.98304439459399,
,,stimoli/01.full/M03-Disgust-Face Forward.wmv,disgusted,full,maschio,4,6,720,576,,,,,,,,,,,,,,,,,0,0,0,0,,,,,0,8,8,39,148.46520809481171,disgusto,103.24727599312246,disgusto,3,,,,,,,,,,disgusted,[-344.0],[54.0],[1],[0],[0],[4.4634242964648365],['disgusto_3'],0.010607611617047041,None,6.794698428516961,soddisfazione,262.4614257371929,disprezzo,2,[214.0],[56.0],[1],[0],[0],[4.462445108685074],['disprezzo_6'],0.009551048803018602,None,,,04,001,healthy,24,f,18,1,virginia,2022-03-25_13h16.35.388,pilot_AIM1,2022.1.1,84.98304439459399,
,,stimoli/02.subtle/JM1_Anger.wmv,angry,subtle,maschio,7,10,1646,926,,,,,,,,,,,,,,,,,0,0,0,0,,,,,0,9,9,6,-149.905758523555,vergogna,101.71037311896953,vergogna,3,,,,,,,,,,angry,[-344.0],[-51.0],[1],[0],[0],[3.1107448579041375],['vergogna_3'],0.010846648633787481,None,-1.5377723846974514,soglievo,256.653462863839,colpa,2,[191.0],[-12.0],[1],[0],[0],[2.2746416924717323],['colpa_6'],0.009618887956321487,None,,,04,001,healthy,24,f,18,1,virginia,2022-03-25_13h16.35.388,pilot_AIM1,2022.1.1,84.98304439459399,
,,stimoli/02.subtle/JF2_Neutral.wmv,neutral,subtle,femmina,6,9,1646,926,,,,,,,,,,,,,,,,,0,0,0,0,,,,,0,10,10,25,26.56505117707799,gioia,2.23606797749979,neutral,1,,,,,,,,,,neutral,[-254.0],[1.0],[1],[0],[0],[5.157640592645407],['neutral_1'],0.010751289823701882,None,0.4458725519324895,soddisfazione,256.5345980564805,neutral,1,[258.0],[4.0],[1],[0],[0],[1.709565224625976],['neutral_5'],0.009634247764552129,None,,,04,001,healthy,24,f,18,1,virginia,2022-03-25_13h16.35.388,pilot_AIM1,2022.1.1,84.98304439459399,
,,stimoli/02.subtle/JM1_Disgust.wmv,disgusted,subtle,maschio,7,10,1646,926,,,,,,,,,,,,,,,,,0,0,0,0,,,,,0,11,11,10,147.65255650055798,disgusto,71.02112361825881,disgusto,2,,,,,,,,,,disgusted,[-316.0],[38.0],[1],[0],[0],[4.381271401732874],['disgusto_2'],0.010714810279068843,None,-7.020188850449219,soglievo,262.8973183583279,paura,2,[215.0],[-58.0],[1],[0],[0],[10.250985987694776],['paura_6'],0.00958464838367945,None,,,04,001,healthy,24,f,18,1,virginia,2022-03-25_13h16.35.388,pilot_AIM1,2022.1.1,84.98304439459399,
,,stimoli/01.full/M03-Sadness-Face Forward.wmv,sad,full,maschio,4,6,720,576,,,,,,,,,,,,,,,,,0,0,0,0,,,,,0,12,12,47,-104.03624346792648,tristezza,103.07764064044152,tristezza,3,,,,,,,,,,sad,[-281.0],[-100.0],[1],[0],[0],[4.6637334766062395],['tristezza_3'],0.010766009640292395,None,-3.273944890689512,soglievo,257.83909711290875,vergogna,1,[216.0],[-27.0],[1],[0],[0],[10.886324618668823],['vergogna_5'],0.009600328187730156,None,,,04,001,healthy,24,f,18,1,virginia,2022-03-25_13h16.35.388,pilot_AIM1,2022.1.1,84.98304439459399,
,,stimoli/01.full/M03-Joy-Face Forward.wmv,happy,full,maschio,4,6,720,576,,,,,,,,,,,,,,,,,0,0,0,0,,,,,0,13,13,43,33.5412476541228,gioia,106.78014796768171,gioia,3,,,,,,,,,,happy,[-167.0],[59.0],[1],[0],[0],[2.8283231025276336],['gioia_3'],0.010763129676206518,None,-1.5047969811084745,soglievo,257.05252381565913,sollievo,2,[315.0],[-15.0],[1],[0],[0],[7.921336021726461],['sollievo_6'],0.009706246866130641,None,,,04,001,healthy,24,f,18,1,virginia,2022-03-25_13h16.35.388,pilot_AIM1,2022.1.1,84.98304439459399,
,,stimoli/01.full/F03-Surprise-Face Forward.wmv,surprised,full,femmina,2,6,720,576,,,,,,,,,,,,,,,,,0,0,0,0,,,,,0,14,14,49,-78.26691584358777,sorpresa,132.7742444904131,sorpresa,4,,,,,,,,,,surprised,[-229.0],[-130.0],[1],[0],[0],[3.957777806932995],['sorpresa_4'],0.010838008741643534,None,0.45113854678728116,soddisfazione,256.52290346088006,neutral,1,[252.0],[4.0],[1],[0],[0],[7.932846918070368],['neutral_5'],0.009326091610546428,None,,,04,001,healthy,24,f,18,1,virginia,2022-03-25_13h16.35.388,pilot_AIM1,2022.1.1,84.98304439459399,
,,stimoli/02.subtle/JF2_Fear.wmv,fear,subtle,femmina,6,10,1646,926,,,,,,,,,,,,,,,,,0,0,0,0,,,,,0,15,15,1,-123.53046966713309,paura,99.56907150315303,paura,3,,,,,,,,,,fear,[-311.0],[-83.0],[1],[0],[0],[6.499174570301307],['paura_3'],0.010839288725833285,None,0.5661454030393284,soddisfazione,256.5365471039166,neutral,1,[250.0],[5.0],[1],[0],[0],[4.885984782909873],['neutral_5'],0.009596808231890464,None,,,04,001,healthy,24,f,18,1,virginia,2022-03-25_13h16.35.388,pilot_AIM1,2022.1.1,84.98304439459399,
,,stimoli/01.full/F01-Anger-Face Forward.wmv,angry,full,femmina,1,6,720,576,,,,,,,,,,,,,,,,,0,0,0,0,,,,,0,16,16,32,102.39085666068091,rabbia,135.14806694880988,rabbia,4,,,,,,,,,,angry,[-285.0],[132.0],[1],[0],[0],[1.8401191153134278],['rabbia_4'],0.010735930015584927,None,2.073150148846427,soddisfazione,256.8618305626587,invidia,2,[186.0],[16.0],[1],[0],[0],[7.638758108298816],['invidia_6'],0.009153933759080246,None,,,04,001,healthy,24,f,18,1,virginia,2022-03-25_13h16.35.388,pilot_AIM1,2022.1.1,84.98304439459399,
,,stimoli/02.subtle/JF1_Surprise.wmv,surprised,subtle,femmina,5,10,1646,926,,,,,,,,,,,,,,,,,0,0,0,0,,,,,0,17,17,20,-80.67640822186199,sorpresa,67.89698078707183,sorpresa,2,,,,,,,,,,surprised,[-245.0],[-67.0],[1],[0],[0],[12.993075286420435],['sorpresa_2'],0.010725050151449977,None,0.5650288179074557,soddisfazione,256.5384961365448,neutral,1,[251.0],[5.0],[1],[0],[0],[3.75666031687922],['neutral_5'],0.009680647185518865,None,,,04,001,healthy,24,f,18,1,virginia,2022-03-25_13h16.35.388,pilot_AIM1,2022.1.1,84.98304439459399,
,,stimoli/01.full/M02-Fear-Face Forward.wmv,fear,full,maschio,3,6,720,576,,,,,,,,,,,,,,,,,0,0,0,0,,,,,0,18,18,30,-127.47617956136138,paura,151.2084653714864,paura,4,,,,,,,,,,fear,[-348.0],[-120.0],[1],[0],[0],[3.616680943821848],['paura_4'],0.010674170786387549,None,-4.855168417206752,soglievo,260.2575647315559,sorpresa,1,[262.0],[-44.0],[1],[0],[0],[4.038734236596724],['sorpresa_5'],0.00935649123107396,None,,,04,001,healthy,24,f,18,1,virginia,2022-03-25_13h16.35.388,pilot_AIM1,2022.1.1,84.98304439459399,
,,stimoli/02.subtle/JF1_Anger.wmv,angry,subtle,femmina,5,10,1646,926,,,,,,,,,,,,,,,,,0,0,0,0,,,,,0,19,19,4,-128.0189425931702,paura,69.81403870282824,paura,2,,,,,,,,,,angry,[-299.0],[-55.0],[1],[0],[0],[10.381221802351888],['paura_2'],0.010703290423066392,None,7.579509776890266,soddisfazione,264.8244701684495,rabbia,2,[240.0],[66.0],[1],[0],[0],[2.627406249970022],['rabbia_6'],0.009624007892398367,None,,,04,001,healthy,24,f,18,1,virginia,2022-03-25_13h16.35.388,pilot_AIM1,2022.1.1,84.98304439459399,
,,stimoli/02.subtle/JF1_Happiness.wmv,happy,subtle,femmina,5,10,1646,926,,,,,,,,,,,,,,,,,0,0,0,0,,,,,0,20,20,12,-9.587833024818645,soglievo,150.0966355385756,sollievo,4,,,,,,,,,,happy,[-108.0],[-25.0],[1],[0],[0],[5.934206581101762],['sollievo_4'],0.010690810578580567,None,5.115881810617401,soddisfazione,262.070601174569,gioia,3,[336.0],[53.0],[1],[0],[0],[3.627349290680854],['gioia_7'],0.009340491430634756,None,,,04,001,healthy,24,f,18,1,virginia,2022-03-25_13h16.35.388,pilot_AIM1,2022.1.1,84.98304439459399,
,,stimoli/02.subtle/JM1_Happiness.wmv,happy,subtle,maschio,7,10,1646,926,,,,,,,,,,,,,,,,,0,0,0,0,,,,,0,21,21,14,30.677280021796452,gioia,68.60029154456998,gioia,2,,,,,,,,,,happy,[-197.0],[35.0],[1],[0],[0],[2.475258708771321],['gioia_2'],0.010704570407142455,None,0.3383569692652585,soddisfazione,256.5092590921427,neutral,1,[252.0],[3.0],[1],[0],[0],[3.191838245858662],['neutral_5'],0.00956992856731631,None,,,04,001,healthy,24,f,18,1,virginia,2022-03-25_13h16.35.388,pilot_AIM1,2022.1.1,84.98304439459399,
,,stimoli/01.full/M02-Anger-Face Forward.wmv,angry,full,maschio,3,6,720,576,,,,,,,,,,,,,,,,,0,0,0,0,,,,,0,22,22,34,106.16449915225692,rabbia,71.84010022264724,rabbia,2,,,,,,,,,,angry,[-276.0],[69.0],[1],[0],[0],[5.016737391117431],['rabbia_2'],0.010743609919927621,None,-0.22646435234118434,soglievo,256.49561399758863,neutral,1,[250.0],[-2.0],[1],[0],[0],[8.827121197527504],['neutral_5'],0.009528649082540142,None,,,04,001,healthy,24,f,18,1,virginia,2022-03-25_13h16.35.388,pilot_AIM1,2022.1.1,84.98304439459399,
,,stimoli/02.subtle/JM2_Fear.wmv,fear,subtle,maschio,8,10,1646,926,,,,,,,,,,,,,,,,,0,0,0,0,,,,,0,23,23,3,101.76828893202065,rabbia,98.0612053770501,rabbia,3,,,,,,,,,,fear,[-276.0],[96.0],[1],[0],[0],[2.334280948173955],['rabbia_3'],0.010689850590551941,None,-4.659182773622126,soglievo,259.04246756082296,vergogna,2,[198.0],[-37.0],[1],[0],[0],[5.027080622033736],['vergogna_6'],0.009575048503393191,None,,,04,001,healthy,24,f,18,1,virginia,2022-03-25_13h16.35.388,pilot_AIM1,2022.1.1,84.98304439459399,
,,stimoli/02.subtle/JM1_Fear.wmv,fear,subtle,maschio,7,10,1646,926,,,,,,,,,,,,,,,,,0,0,0,0,,,,,0,24,24,2,-126.70285503016314,paura,68.60029154456998,paura,2,,,,,,,,,,fear,[-297.0],[-55.0],[1],[0],[0],[14.052139509298968],['paura_2'],0.010833848793708967,None,0.44414443311192825,soddisfazione,256.5384961365448,neutral,1,[260.0],[4.0],[1],[0],[0],[1.497645309386371],['neutral_5'],0.009185613363570155,None,,,04,001,healthy,24,f,18,1,virginia,2022-03-25_13h16.35.388,pilot_AIM1,2022.1.1,84.98304439459399,
,,stimoli/01.full/F01-Disgust-Face Forward.wmv,disgusted,full,femmina,1,6,720,576,,,,,,,,,,,,,,,,,0,0,0,0,,,,,0,25,25,36,144.9041832129739,disgusto,135.66502865514016,disgusto,4,,,,,,,,,,disgusted,[-367.0],[78.0],[1],[0],[0],[2.6165372656150794],['disgusto_4'],0.010688250610655814,None,0.7910157293941884,soddisfazione,256.5852684781416,neutral,1,[251.0],[7.0],[1],[0],[0],[1.850742022739496],['neutral_5'],0.009495049501765607,None,,,04,001,healthy,24,f,18,1,virginia,2022-03-25_13h16.35.388,pilot_AIM1,2022.1.1,84.98304439459399,
,,stimoli/02.subtle/JF1_Fear.wmv,fear,subtle,femmina,5,10,1646,926,,,,,,,,,,,,,,,,,0,0,0,0,,,,,0,26,26,0,-126.97759635267249,paura,106.40018796975878,paura,3,,,,,,,,,,fear,[-320.0],[-85.0],[1],[0],[0],[3.534328371581978],['paura_3'],0.010822648933299206,None,-0.4450068148381547,soglievo,256.5365471039166,neutral,1,[259.0],[-4.0],[1],[0],[0],[4.533155266222366],['neutral_5'],0.009572808531174815,None,,,04,001,healthy,24,f,18,1,virginia,2022-03-25_13h16.35.388,pilot_AIM1,2022.1.1,84.98304439459399,
,,stimoli/02.subtle/JF2_Disgust.wmv,disgusted,subtle,femmina,6,10,1646,926,,,,,,,,,,,,,,,,,0,0,0,0,,,,,0,27,27,9,121.75948008481281,disprezzo,98.79271228182775,disprezzo,3,,,,,,,,,,disgusted,[-308.0],[84.0],[1],[0],[0],[2.546290782290953],['disprezzo_3'],0.010781049452361913,None,4.408355983085687,soddisfazione,258.7643715815607,disgusto,2,[198.0],[35.0],[1],[0],[0],[1.8504908258746582],['disgusto_6'],0.009268172333122493,None,,,04,001,healthy,24,f,18,1,virginia,2022-03-25_13h16.35.388,pilot_AIM1,2022.1.1,84.98304439459399,
,,stimoli/02.subtle/JF1_Disgust.wmv,disgusted,subtle,femmina,5,10,1646,926,,,,,,,,,,,,,,,,,0,0,0,0,,,,,0,28,28,8,145.20397372173167,disgusto,143.69411957348845,disgusto,4,,,,,,,,,,disgusted,[-374.0],[82.0],[1],[0],[0],[1.5576429606160218],['disgusto_4'],0.010672890802197799,None,0.3370301098578076,soddisfazione,256.5131575572684,neutral,1,[254.0],[3.0],[1],[0],[0],[1.4272397880474728],['neutral_5'],0.009587848343699079,None,,,04,001,healthy,24,f,18,1,virginia,2022-03-25_13h16.35.388,pilot_AIM1,2022.1.1,84.98304439459399,
,,stimoli/02.subtle/JM2_Neutral.wmv,neutral,subtle,maschio,8,10,1646,926,,,,,,,,,,,,,,,,,0,0,0,0,,,,,0,29,29,27,71.56505117707799,orgoglio,3.1622776601683795,neutral,1,,,,,,,,,,neutral,[-255.0],[3.0],[1],[0],[0],[3.6049041307965126],['neutral_1'],0.010871288326598005,None,0.33769223620857014,soddisfazione,256.51120833211166,neutral,1,[253.0],[3.0],[1],[0],[0],[1.7799070667597334],['neutral_5'],0.009415690492232898,None,,,04,001,healthy,24,f,18,1,virginia,2022-03-25_13h16.35.388,pilot_AIM1,2022.1.1,84.98304439459399,
,,stimoli/01.full/M02-Sadness-Face Forward.wmv,sad,full,maschio,3,6,720,576,,,,,,,,,,,,,,,,,0,0,0,0,,,,,0,30,30,46,-127.61395684873274,paura,77.00649323271382,paura,2,,,,,,,,,,sad,[-303.0],[-61.0],[1],[0],[0],[8.05203647058488],['paura_2'],0.01084760862204348,None,-0.1125652373213464,soglievo,256.49561399758863,neutral,1,[253.0],[-1.0],[1],[0],[0],[1.9211651438588433],['neutral_5'],0.009513609270470624,None,,,04,001,healthy,24,f,18,1,virginia,2022-03-25_13h16.35.388,pilot_AIM1,2022.1.1,84.98304439459399,
,,stimoli/02.subtle/JM1_Neutral.wmv,neutral,subtle,maschio,7,10,1646,926,,,,,,,,,,,,,,,,,0,0,0,0,,,,,0,31,31,26,0.0,soddisfazione,0.0,neutral,1,,,,,,,,,,neutral,[-256.0],[0.0],[1],[0],[0],[0.8522165643371409],['neutral_1'],0.01073113007532811,None,0.45113854678728116,soddisfazione,256.52290346088006,neutral,1,[252.0],[4.0],[1],[0],[0],[1.497439231958424],['neutral_5'],0.009280012185399755,None,,,04,001,healthy,24,f,18,1,virginia,2022-03-25_13h16.35.388,pilot_AIM1,2022.1.1,84.98304439459399,
,,stimoli/01.full/F01-Sadness-Face Forward.wmv,sad,full,femmina,1,6,720,576,,,,,,,,,,,,,,,,,0,0,0,0,,,,,0,32,32,44,-101.94417718844633,tristezza,106.30145812734649,tristezza,3,,,,,,,,,,sad,[-278.0],[-104.0],[1],[0],[0],[2.6874663004205104],['tristezza_3'],0.010764089664235144,None,1.0210048155726674,soddisfazione,256.64372191814863,neutral,1,[249.0],[9.0],[1],[0],[0],[6.862264758935908],['neutral_5'],0.009325771613930556,None,,,04,001,healthy,24,f,18,1,virginia,2022-03-25_13h16.35.388,pilot_AIM1,2022.1.1,84.98304439459399,
,,stimoli/02.subtle/JM1_Surprise.wmv,surprised,subtle,maschio,7,10,1646,926,,,,,,,,,,,,,,,,,0,0,0,0,,,,,0,33,33,22,-78.84534026107171,sorpresa,72.3671196055225,sorpresa,2,,,,,,,,,,surprised,[-242.0],[-71.0],[1],[0],[0],[3.3224222161707075],['sorpresa_2'],0.010694010538600196,None,0.0,soddisfazione,256.48391762447795,neutral,1,[248.0],[0.0],[1],[0],[0],[1.4977345882723512],['neutral_5'],0.00950528937346462,None,,,04,001,healthy,24,f,18,1,virginia,2022-03-25_13h16.35.388,pilot_AIM1,2022.1.1,84.98304439459399,
,,stimoli/02.subtle/JM2_Disgust.wmv,disgusted,subtle,maschio,8,10,1646,926,,,,,,,,,,,,,,,,,0,0,0,0,,,,,0,34,34,11,124.84573341979976,disprezzo,96.26006440887103,disprezzo,3,,,,,,,,,,disgusted,[-311.0],[79.0],[1],[0],[0],[2.5459298267958275],['disprezzo_3'],0.010735290023148991,None,3.025502945499907,soddisfazione,257.63928271907605,disgusto,1,[217.0],[25.0],[1],[0],[0],[3.756691356491956],['disgusto_5'],0.0094387302042378,None,,,04,001,healthy,24,f,18,1,virginia,2022-03-25_13h16.35.388,pilot_AIM1,2022.1.1,84.98304439459399,
,,stimoli/02.subtle/JF1_Sadness.wmv,sad,subtle,femmina,5,10,1646,926,,,,,,,,,,,,,,,,,0,0,0,0,,,,,0,35,35,16,-169.83791680599924,colpa,107.68936809174804,colpa,3,,,,,,,,,,sad,[-362.0],[-19.0],[1],[0],[0],[2.475544145209142],['colpa_3'],0.010727610119602105,None,-6.62316834049246,soglievo,260.9655149631844,vergogna,3,[166.0],[-49.0],[1],[0],[0],[1.4268756325921004],['vergogna_7'],0.009160013682958379,None,,,04,001,healthy,24,f,18,1,virginia,2022-03-25_13h16.35.388,pilot_AIM1,2022.1.1,84.98304439459399,
,,stimoli/02.subtle/JM2_Anger.wmv,angry,subtle,maschio,8,10,1646,926,,,,,,,,,,,,,,,,,0,0,0,0,,,,,0,36,36,7,101.30993247402021,rabbia,112.17842929904127,rabbia,3,,,,,,,,,,angry,[-278.0],[110.0],[1],[0],[0],[1.840286153228817],['rabbia_3'],0.010741049951320747,None,10.102587251807146,soddisfazione,268.56842703489923,disprezzo,3,[193.0],[80.0],[1],[0],[0],[3.274136418777516],['disprezzo_7'],0.009258572452836233,None,,,04,001,healthy,24,f,18,1,virginia,2022-03-25_13h16.35.388,pilot_AIM1,2022.1.1,84.98304439459399,
,,stimoli/01.full/M03-Anger-Face Forward.wmv,angry,full,maschio,4,6,720,576,,,,,,,,,,,,,,,,,0,0,0,0,,,,,0,37,37,35,107.06285717346141,rabbia,105.65036677645753,rabbia,3,,,,,,,,,,angry,[-287.0],[101.0],[1],[0],[0],[2.616562865295464],['rabbia_3'],0.010777849492342284,None,0.3370301098578076,soddisfazione,256.5131575572684,neutral,1,[254.0],[3.0],[1],[0],[0],[2.0624651404350516],['neutral_5'],0.009582728407167451,None,,,04,001,healthy,24,f,18,1,virginia,2022-03-25_13h16.35.388,pilot_AIM1,2022.1.1,84.98304439459399,
,,stimoli/01.full/F01-Surprise-Face Forward.wmv,surprised,full,femmina,1,6,720,576,,,,,,,,,,,,,,,,,0,0,0,0,,,,,0,38,38,48,-81.04752666584584,sorpresa,147.80054127099805,sorpresa,4,,,,,,,,,,surprised,[-233.0],[-146.0],[1],[0],[0],[1.6400720119013386],['sorpresa_4'],0.010722810179231601,None,0.679364755465251,soddisfazione,256.55798564846896,neutral,1,[250.0],[6.0],[1],[0],[0],[1.4978014674377391],['neutral_5'],0.009675207253167173,None,,,04,001,healthy,24,f,18,1,virginia,2022-03-25_13h16.35.388,pilot_AIM1,2022.1.1,84.98304439459399,
,,stimoli/02.subtle/JM2_Happiness.wmv,happy,subtle,maschio,8,10,1646,926,,,,,,,,,,,,,,,,,0,0,0,0,,,,,0,39,39,15,-12.952764513375518,soglievo,102.61091559868278,sollievo,3,,,,,,,,,,happy,[-156.0],[-23.0],[1],[0],[0],[4.945889315301201],['sollievo_3'],0.01076024971212064,None,1.8762597450012704,soddisfazione,257.33441277839233,soddisfazione,2,[324.0],[19.0],[1],[0],[0],[5.521448212326277],['soddisfazione_6'],0.009675207253167173,None,,,04,001,healthy,24,f,18,1,virginia,2022-03-25_13h16.35.388,pilot_AIM1,2022.1.1,84.98304439459399,
,,stimoli/01.full/F03-Sadness-Face Forward.wmv,sad,full,femmina,2,6,720,576,,,,,,,,,,,,,,,,,0,0,0,0,,,,,0,40,40,45,-101.56997204790201,tristezza,129.634100452003,tristezza,4,,,,,,,,,,sad,[-282.0],[-127.0],[1],[0],[0],[2.9813135132073967],['tristezza_4'],0.01077848948443716,None,5.359367723832131,soddisfazione,260.74892137840186,rabbia,1,[245.0],[47.0],[1],[0],[0],[4.544545524071964],['rabbia_5'],0.009210893047793434,None,,,04,001,healthy,24,f,18,1,virginia,2022-03-25_13h16.35.388,pilot_AIM1,2022.1.1,84.98304439459399,
,,stimoli/01.full/F01-Neutral-Face Forward.wmv,neutral,full,femmina,1,6,720,576,,,,,,,,,,,,,,,,,0,0,0,0,,,,,0,41,41,52,-26.56505117707799,speranza,2.23606797749979,neutral,1,,,,,,,,,,neutral,[-254.0],[-1.0],[1],[0],[0],[2.334219188944644],['neutral_1'],0.010766969628093648,None,0.1116875378979654,soddisfazione,256.50341128335896,neutral,1,[257.0],[1.0],[1],[0],[0],[1.2858969120065922],['neutral_5'],0.009379850939239986,None,,,04,001,healthy,24,f,18,1,virginia,2022-03-25_13h16.35.388,pilot_AIM1,2022.1.1,84.98304439459399,
,,stimoli/01.full/M03-Fear-Face Forward.wmv,fear,full,maschio,4,6,720,576,,,,,,,,,,,,,,,,,0,0,0,0,,,,,0,42,42,31,-126.75367918553147,paura,98.60020283954795,paura,3,,,,,,,,,,fear,[-315.0],[-79.0],[1],[0],[0],[10.392909976483452],['paura_3'],0.010511292818819129,None,5.068403601147252,soddisfazione,259.4821766518849,disgusto,2,[195.0],[40.0],[1],[0],[0],[12.933000516153697],['disgusto_6'],0.009342091410417197,None,,,04,001,healthy,24,f,18,1,virginia,2022-03-25_13h16.35.388,pilot_AIM1,2022.1.1,84.98304439459399,
,,stimoli/02.subtle/JF2_Anger.wmv,angry,subtle,femmina,6,9,1646,926,,,,,,,,,,,,,,,,,0,0,0,0,,,,,0,43,43,5,124.59228868750995,disprezzo,105.68348972285122,disprezzo,3,,,,,,,,,,angry,[-316.0],[87.0],[1],[0],[0],[4.099019564235732],['disprezzo_3'],0.01079256930847805,None,7.775434079160046,soddisfazione,265.3337520934719,rabbia,2,[242.0],[68.0],[1],[0],[0],[2.7681395336185233],['rabbia_6'],0.00935425125862821,None,,,04,001,healthy,24,f,18,1,virginia,2022-03-25_13h16.35.388,pilot_AIM1,2022.1.1,84.98304439459399,
,,stimoli/01.full/F03-Fear-Face Forward.wmv,fear,full,femmina,2,6,720,576,,,,,,,,,,,,,,,,,0,0,0,0,,,,,0,44,44,29,-123.57289840605486,paura,135.6244815658294,paura,4,,,,,,,,,,fear,[-331.0],[-113.0],[1],[0],[0],[3.322433736027051],['paura_4'],0.01068953059461819,None,-0.11060947555190032,soglievo,256.5131575572684,neutral,1,[262.0],[-1.0],[1],[0],[0],[6.438983641484128],['neutral_5'],0.00958592836718708,None,,,04,001,healthy,24,f,18,1,virginia,2022-03-25_13h16.35.388,pilot_AIM1,2022.1.1,84.98304439459399,
,,stimoli/01.full/F03-Joy-Face Forward.wmv,happy,full,femmina,2,6,720,576,,,,,,,,,,,,,,,,,0,0,0,0,,,,,0,45,45,41,33.219476223084584,gioia,135.07405376311175,gioia,4,,,,,,,,,,happy,[-143.0],[74.0],[1],[0],[0],[5.310622043436979],['gioia_4'],0.01053977246328941,None,4.267893300290812,soddisfazione,259.64591273501685,euforia,1,[280.0],[40.0],[1],[0],[0],[8.13300282012483],['euforia_5'],0.009452490032799687,None,,,04,001,healthy,24,f,18,1,virginia,2022-03-25_13h16.35.388,pilot_AIM1,2022.1.1,84.98304439459399,
,,stimoli/02.subtle/JF2_Sadness.wmv,sad,subtle,femmina,6,8,1646,926,,,,,,,,,,,,,,,,,0,0,0,0,,,,,0,46,46,17,-102.0947570770121,tristezza,71.58910531638176,tristezza,2,,,,,,,,,,sad,[-271.0],[-70.0],[1],[0],[0],[2.475436626550845],['tristezza_2'],0.01074488990343525,None,-0.4458725519324895,soglievo,256.5345980564805,neutral,1,[258.0],[-4.0],[1],[0],[0],[1.638689949149466],['neutral_5'],0.008992015779313078,None,,,04,001,healthy,24,f,18,1,virginia,2022-03-25_13h16.35.388,pilot_AIM1,2022.1.1,84.98304439459399,
,,stimoli/01.full/F03-Disgust-Face Forward.wmv,disgusted,full,femmina,2,6,720,576,,,,,,,,,,,,,,,,,0,0,0,0,,,,,0,47,47,37,147.9498544732788,disgusto,135.67977004697494,disgusto,4,,,,,,,,,,disgusted,[-371.0],[72.0],[1],[0],[0],[2.8282386235819104],['disgusto_4'],0.010704890402848832,None,-0.1116875378979654,soglievo,256.50341128335896,neutral,1,[257.0],[-1.0],[1],[0],[0],[1.356604509575618],['neutral_5'],0.009607688095684352,None,,,04,001,healthy,24,f,18,1,virginia,2022-03-25_13h16.35.388,pilot_AIM1,2022.1.1,84.98304439459399,
,,stimoli/01.full/F03-Neutral-Face Forward.wmv,neutral,full,femmina,2,6,720,576,,,,,,,,,,,,,,,,,0,0,0,0,,,,,0,48,48,53,180.0,soglievo,1.0,neutral,1,,,,,,,,,,neutral,[-256.0],[0.0],[1],[0],[0],[0.9341477018365367],['neutral_1'],0.010589691840550586,None,-0.4450068148381547,soglievo,256.5365471039166,neutral,1,[259.0],[-4.0],[1],[0],[0],[1.3802570143923276],['neutral_5'],0.009396170735726628,None,,,04,001,healthy,24,f,18,1,virginia,2022-03-25_13h16.35.388,pilot_AIM1,2022.1.1,84.98304439459399,
,,stimoli/02.subtle/JM2_Sadness.wmv,sad,subtle,maschio,8,10,1646,926,,,,,,,,,,,,,,,,,0,0,0,0,,,,,0,49,49,19,-168.5180086452519,colpa,65.30696746902278,colpa,2,,,,,,,,,,sad,[-320.0],[-13.0],[1],[0],[0],[15.11076917760056],['colpa_2'],0.010788089364496045,None,-4.022969123498848,soglievo,258.37763061070126,vergogna,2,[199.0],[-32.0],[1],[0],[0],[4.321193751502051],['vergogna_6'],0.009598728207720342,None,,,04,001,healthy,24,f,18,1,virginia,2022-03-25_13h16.35.388,pilot_AIM1,2022.1.1,84.98304439459399,
,,stimoli/02.subtle/JF2_Surprise.wmv,surprised,subtle,femmina,6,10,1646,926,,,,,,,,,,,,,,,,,0,0,0,0,,,,,0,50,50,21,-78.87081071038882,sorpresa,62.16912416947821,sorpresa,2,,,,,,,,,,surprised,[-244.0],[-61.0],[1],[0],[0],[4.5935106729866675],['sorpresa_2'],0.010918967731186058,None,1.9525090493996085,soddisfazione,256.7975856584325,invidia,2,[184.0],[15.0],[1],[0],[0],[2.6269275359443327],['invidia_6'],0.009090894545579431,None,,,04,001,healthy,24,f,18,1,virginia,2022-03-25_13h16.35.388,pilot_AIM1,2022.1.1,84.98304439459399,
,,stimoli/01.full/M03-Neutral-Face Forward.wmv,neutral,full,maschio,4,6,720,576,,,,,,,,,,,,,,,,,0,0,0,0,,,,,0,51,51,55,-143.13010235415598,vergogna,5.0,neutral,1,,,,,,,,,,neutral,[-260.0],[-3.0],[1],[0],[0],[1.3463191979365092],['neutral_1'],0.010861688446084372,None,-0.33505921860912397,soglievo,256.5190051438684,neutral,1,[257.0],[-3.0],[1],[0],[0],[1.497631549558264],['neutral_5'],0.00944897007639156,None,,,04,001,healthy,24,f,18,1,virginia,2022-03-25_13h16.35.388,pilot_AIM1,2022.1.1,84.98304439459399,
,,stimoli/02.subtle/JM1_Sadness.wmv,sad,subtle,maschio,7,10,1646,926,,,,,,,,,,,,,,,,,0,0,0,0,,,,,0,52,52,18,-167.19573393471325,colpa,45.12205669071391,colpa,1,,,,,,,,,,sad,[-300.0],[-10.0],[1],[0],[0],[5.228449948944672],['colpa_1'],0.010875768270352637,None,0.33246694264604343,soddisfazione,256.52680171865086,neutral,1,[261.0],[3.0],[1],[0],[0],[1.356684188581312],['neutral_5'],0.00958368839542345,None,,,04,001,healthy,24,f,18,1,virginia,2022-03-25_13h16.35.388,pilot_AIM1,2022.1.1,84.98304439459399,
,,stimoli/02.subtle/JF1_Neutral.wmv,neutral,subtle,femmina,5,10,1646,926,,,,,,,,,,,,,,,,,0,0,0,0,,,,,0,53,53,24,-45.0,interesse,4.242640687119285,neutral,1,,,,,,,,,,neutral,[-253.0],[-3.0],[1],[0],[0],[1.1344754417464173],['neutral_1'],0.010808249112869817,None,0.2255727696340518,soddisfazione,256.4995126701024,neutral,1,[252.0],[2.0],[1],[0],[0],[1.5681596293677558],['neutral_5'],0.009461129924829947,None,,,04,001,healthy,24,f,18,1,virginia,2022-03-25_13h16.35.388,pilot_AIM1,2022.1.1,84.98304439459399,
,,stimoli/01.full/M02-Neutral-Face Forward.wmv,neutral,full,maschio,3,6,720,576,,,,,,,,,,,,,,,,,0,0,0,0,,,,,0,54,54,54,-12.094757077012101,soglievo,71.58910531638176,sollievo,2,,,,,,,,,,neutral,[-186.0],[-15.0],[1],[0],[0],[3.2519290159259526],['sollievo_2'],0.010750969827768131,None,0.450252260037571,soddisfazione,256.5248525971704,neutral,1,[253.0],[4.0],[1],[0],[0],[1.085918287739787],['neutral_5'],0.009428490332311412,None,,,04,001,healthy,24,f,18,1,virginia,2022-03-25_13h16.35.388,pilot_AIM1,2022.1.1,84.98304439459399,
,,stimoli/01.full/M02-Joy-Face Forward.wmv,happy,full,maschio,3,6,720,576,,,,,,,,,,,,,,,,,0,0,0,0,,,,,0,55,55,42,33.340707346477004,gioia,90.97252332435328,gioia,3,,,,,,,,,,happy,[-180.0],[50.0],[1],[0],[0],[1.9813157531793877],['gioia_3'],0.01074104995154812,None,1.389919511618165,soddisfazione,257.00778198334774,soddisfazione,2,[321.0],[14.0],[1],[0],[0],[3.75660911751811],['soddisfazione_6'],0.009523849142169638,None,,,04,001,healthy,24,f,18,1,virginia,2022-03-25_13h16.35.388,pilot_AIM1,2022.1.1,84.98304439459399,
,,stimoli/01.full/M02-Disgust-Face Forward.wmv,disgusted,full,maschio,3,6,720,576,,,,,,,,,,,,,,,,,1,0,1,0,,,,,0,0,0,38,146.76828893202065,disgusto,104.0096149401583,disgusto,3,,,,,,,,,,disgusted,[-343.0],[57.0],[1],[0],[0],[2.969611899243546],['disgusto_3'],0.01076760961996115,None,6.918386406693666,soddisfazione,262.910631203837,disprezzo,2,[222.0],[58.0],[1],[0],[0],[1.1553059017824125],['disprezzo_6'],0.008216985451781511,None,,,04,001,healthy,24,f,18,1,virginia,2022-03-25_13h16.35.388,pilot_AIM1,2022.1.1,84.98304439459399,
,,stimoli/01.full/F03-Neutral-Face Forward.wmv,neutral,full,femmina,2,6,720,576,,,,,,,,,,,,,,,,,1,0,1,0,,,,,0,1,1,53,75.96375653207353,orgoglio,8.246211251235321,neutral,1,,,,,,,,,,neutral,[-254.0],[8.0],[1],[0],[0],[1.275364243454078],['neutral_1'],0.010651451069634277,None,0.22691279191878977,soddisfazione,256.49366463910957,neutral,1,[249.0],[2.0],[1],[0],[0],[1.6389267461941017],['neutral_5'],0.009594568259672087,None,,,04,001,healthy,24,f,18,1,virginia,2022-03-25_13h16.35.388,pilot_AIM1,2022.1.1,84.98304439459399,
,,stimoli/02.subtle/JF1_Fear.wmv,fear,subtle,femmina,5,10,1646,926,,,,,,,,,,,,,,,,,1,0,1,0,,,,,0,2,2,0,-124.13594007791228,paura,71.28113354878694,paura,2,,,,,,,,,,fear,[-296.0],[-59.0],[1],[0],[0],[3.2518547768522694],['paura_2'],0.010747769867748502,None,0.9040003954248742,soddisfazione,256.61449686251166,neutral,1,[251.0],[8.0],[1],[0],[0],[1.2859993107285845],['neutral_5'],0.00955520875095317,None,,,04,001,healthy,24,f,18,1,virginia,2022-03-25_13h16.35.388,pilot_AIM1,2022.1.1,84.98304439459399,
,,stimoli/01.full/F01-Surprise-Face Forward.wmv,surprised,full,femmina,1,6,720,576,,,,,,,,,,,,,,,,,1,0,1,0,,,,,0,3,3,48,-78.77420223718562,sorpresa,133.55523202031435,sorpresa,4,,,,,,,,,,surprised,[-230.0],[-131.0],[1],[0],[0],[2.416596080880936],['sorpresa_4'],0.010724410159127729,None,-6.4338340759319355,soglievo,261.8377360122104,paura,2,[214.0],[-53.0],[1],[0],[0],[8.344813616726015],['paura_6'],0.009423050400300781,None,,,04,001,healthy,24,f,18,1,virginia,2022-03-25_13h16.35.388,pilot_AIM1,2022.1.1,84.98304439459399,
,,stimoli/01.full/M03-Anger-Face Forward.wmv,angry,full,maschio,4,6,720,576,,,,,,,,,,,,,,,,,1,0,1,0,,,,,0,4,4,35,103.51656810879132,rabbia,106.96261028976434,rabbia,3,,,,,,,,,,angry,[-281.0],[104.0],[1],[0],[0],[2.19302415105858],['rabbia_3'],0.01072857010763073,None,1.9262620344327326,soddisfazione,256.8092677455391,invidia,2,[190.0],[15.0],[1],[0],[0],[4.039000793270134],['invidia_6'],0.00966784734509929,None,,,04,001,healthy,24,f,18,1,virginia,2022-03-25_13h16.35.388,pilot_AIM1,2022.1.1,84.98304439459399,
,,stimoli/02.subtle/JF2_Fear.wmv,fear,subtle,femmina,6,10,1646,926,,,,,,,,,,,,,,,,,1,0,1,0,,,,,0,5,5,1,-124.59228868750995,paura,70.45565981523414,paura,2,,,,,,,,,,fear,[-296.0],[-58.0],[1],[0],[0],[2.6167587028514845],['paura_2'],0.010882168190391894,None,0.34240098075245734,soddisfazione,256.4975633412528,neutral,1,[246.0],[3.0],[1],[0],[0],[3.9683767146584614],['neutral_5'],0.009594888255833212,None,,,04,001,healthy,24,f,18,1,virginia,2022-03-25_13h16.35.388,pilot_AIM1,2022.1.1,84.98304439459399,
,,stimoli/02.subtle/JM2_Disgust.wmv,disgusted,subtle,maschio,8,10,1646,926,,,,,,,,,,,,,,,,,1,0,1,0,,,,,0,6,6,11,125.72739822279969,disprezzo,70.21395872616783,disprezzo,2,,,,,,,,,,disgusted,[-297.0],[57.0],[1],[0],[0],[4.311171156584123],['disprezzo_2'],0.010822648933299206,None,0.563916628353376,soddisfazione,256.5404451543655,neutral,1,[252.0],[5.0],[1],[0],[0],[1.9209120270179483],['neutral_5'],0.009171853535008267,None,,,04,001,healthy,24,f,18,1,virginia,2022-03-25_13h16.35.388,pilot_AIM1,2022.1.1,84.98304439459399,
,,stimoli/01.full/F01-Fear-Face Forward.wmv,fear,full,femmina,1,6,720,576,,,,,,,,,,,,,,,,,1,0,1,0,,,,,0,7,7,28,-123.4533094540727,paura,134.23859355639868,paura,4,,,,,,,,,,fear,[-330.0],[-112.0],[1],[0],[0],[2.346097760700104],['paura_4'],0.01076536964819752,None,0.4484900923964887,soddisfazione,256.5287508253217,neutral,1,[255.0],[4.0],[1],[0],[0],[1.2855292365952664],['neutral_5'],0.008937616458524644,None,,,04,001,healthy,24,f,18,1,virginia,2022-03-25_13h16.35.388,pilot_AIM1,2022.1.1,84.98304439459399,
,,stimoli/02.subtle/JM2_Fear.wmv,fear,subtle,maschio,8,10,1646,926,,,,,,,,,,,,,,,,,1,0,1,0,,,,,0,8,8,3,-127.87498365109822,paura,68.41052550594829,paura,2,,,,,,,,,,fear,[-298.0],[-54.0],[1],[0],[0],[2.8286872579828923],['paura_2'],0.01084376866947423,None,0.7802444826003744,soddisfazione,256.5989088051623,neutral,1,[258.0],[7.0],[1],[0],[0],[1.1444525972315205],['neutral_5'],0.00925985243679861,None,,,04,001,healthy,24,f,18,1,virginia,2022-03-25_13h16.35.388,pilot_AIM1,2022.1.1,84.98304439459399,
,,stimoli/02.subtle/JF1_Happiness.wmv,happy,subtle,femmina,5,10,1646,926,,,,,,,,,,,,,,,,,1,0,1,0,,,,,0,9,9,12,-11.481991354748095,soglievo,130.61393493804556,sollievo,4,,,,,,,,,,happy,[-128.0],[-26.0],[1],[0],[0],[2.204764484539055],['sollievo_4'],0.010653371045691529,None,4.95712606968069,soddisfazione,261.6658174083883,gioia,3,[332.0],[51.0],[1],[0],[0],[2.133070659278019],['gioia_7'],0.009627527847897,None,,,04,001,healthy,24,f,18,1,virginia,2022-03-25_13h16.35.388,pilot_AIM1,2022.1.1,84.98304439459399,
,,stimoli/02.subtle/JF1_Disgust.wmv,disgusted,subtle,femmina,5,10,1646,926,,,,,,,,,,,,,,,,,1,0,1,0,,,,,0,10,10,8,147.4989194596387,disgusto,147.02720836634285,disgusto,4,,,,,,,,,,disgusted,[-380.0],[79.0],[1],[0],[0],[2.1224087123391655],['disgusto_4'],0.010758329736063388,None,-0.11212467000483774,soglievo,256.4995126701024,neutral,1,[255.0],[-1.0],[1],[0],[0],[1.497788987593367],['neutral_5'],0.009596168239340841,None,,,04,001,healthy,24,f,18,1,virginia,2022-03-25_13h16.35.388,pilot_AIM1,2022.1.1,84.98304439459399,
,,stimoli/01.full/F01-Anger-Face Forward.wmv,angry,full,femmina,1,6,720,576,,,,,,,,,,,,,,,,,1,0,1,0,,,,,0,11,11,32,101.30993247402021,rabbia,142.772546380598,rabbia,4,,,,,,,,,,angry,[-284.0],[140.0],[1],[0],[0],[4.381397480159421],['rabbia_4'],0.010844088665635354,None,2.223961240385479,soddisfazione,256.80342676841366,invidia,3,[156.0],[16.0],[1],[0],[0],[2.6272136123741348],['invidia_7'],0.009516809230035506,None,,,04,001,healthy,24,f,18,1,virginia,2022-03-25_13h16.35.388,pilot_AIM1,2022.1.1,84.98304439459399,
,,stimoli/01.full/M03-Fear-Face Forward.wmv,fear,full,maschio,4,6,720,576,,,,,,,,,,,,,,,,,1,0,1,0,,,,,0,12,12,31,-124.01934998982647,paura,144.77914214416384,paura,4,,,,,,,,,,fear,[-337.0],[-120.0],[1],[0],[0],[2.6871555842983526],['paura_4'],0.010740729955841744,None,0.11039635570309334,soddisfazione,256.5151067676132,neutral,1,[263.0],[1.0],[1],[0],[0],[1.2154382713301857],['neutral_5'],0.00962656786032312,None,,,04,001,healthy,24,f,18,1,virginia,2022-03-25_13h16.35.388,pilot_AIM1,2022.1.1,84.98304439459399,
,,stimoli/01.full/M03-Surprise-Face Forward.wmv,surprised,full,maschio,4,6,720,576,,,,,,,,,,,,,,,,,1,0,1,0,,,,,0,13,13,51,-83.38653951768524,sorpresa,138.92443989449805,sorpresa,4,,,,,,,,,,surprised,[-240.0],[-138.0],[1],[0],[0],[3.475715663068513],['sorpresa_4'],0.010776889504313658,None,0.6714041828499762,soddisfazione,256.5696786450028,neutral,1,[256.0],[6.0],[1],[0],[0],[1.07386211820085],['neutral_5'],0.00912641410195647,None,,,04,001,healthy,24,f,18,1,virginia,2022-03-25_13h16.35.388,pilot_AIM1,2022.1.1,84.98304439459399,
,,stimoli/02.subtle/JM2_Surprise.wmv,surprised,subtle,maschio,8,10,1646,926,,,,,,,,,,,,,,,,,1,0,1,0,,,,,0,14,14,23,-77.7352262721076,sorpresa,94.14881836751856,sorpresa,3,,,,,,,,,,surprised,[-236.0],[-92.0],[1],[0],[0],[1.769574395711743],['sorpresa_3'],0.010743609919472874,None,-1.2228768959372707,soglievo,257.0175091311874,sollievo,3,[353.0],[-13.0],[1],[0],[0],[3.0620360257903485],['sollievo_7'],0.00909921444167594,None,,,04,001,healthy,24,f,18,1,virginia,2022-03-25_13h16.35.388,pilot_AIM1,2022.1.1,84.98304439459399,
,,stimoli/01.full/M02-Joy-Face Forward.wmv,happy,full,maschio,3,6,720,576,,,,,,,,,,,,,,,,,1,0,1,0,,,,,0,15,15,42,34.14358665193776,gioia,105.11898020814318,gioia,3,,,,,,,,,,happy,[-169.0],[59.0],[1],[0],[0],[1.9814162319253228],['gioia_3'],0.010827448873442336,None,2.0621323002958487,soddisfazione,257.633460559765,soddisfazione,3,[355.0],[22.0],[1],[0],[0],[2.2741671383939774],['soddisfazione_7'],0.009522569157979888,None,,,04,001,healthy,24,f,18,1,virginia,2022-03-25_13h16.35.388,pilot_AIM1,2022.1.1,84.98304439459399,
,,stimoli/02.subtle/JM1_Neutral.wmv,neutral,subtle,maschio,7,10,1646,926,,,,,,,,,,,,,,,,,1,0,1,0,,,,,0,16,16,26,0.0,soddisfazione,0.0,neutral,1,,,,,,,,,,neutral,[-256.0],[0.0],[1],[0],[0],[0.8517074506910376],['neutral_1'],0.010658170986062032,None,-0.22250676302755734,soglievo,256.5131575572684,neutral,1,[259.0],[-2.0],[1],[0],[0],[0.8627319531051398],['neutral_5'],0.009599048203426719,None,,,04,001,healthy,24,f,18,1,virginia,2022-03-25_13h16.35.388,pilot_AIM1,2022.1.1,84.98304439459399,
,,stimoli/01.full/M03-Sadness-Face Forward.wmv,sad,full,maschio,4,6,720,576,,,,,,,,,,,,,,,,,1,0,1,0,,,,,0,17,17,47,-102.93260839673952,tristezza,138.51353724455961,tristezza,4,,,,,,,,,,sad,[-287.0],[-135.0],[1],[0],[0],[3.0635115273762494],['tristezza_4'],0.010659450969797035,None,-4.282878465246133,soglievo,258.63101128828305,vergogna,2,[198.0],[-34.0],[1],[0],[0],[4.038978073553608],['vergogna_6'],0.009582088415527323,None,,,04,001,healthy,24,f,18,1,virginia,2022-03-25_13h16.35.388,pilot_AIM1,2022.1.1,84.98304439459399,
,,stimoli/02.subtle/JF2_Anger.wmv,angry,subtle,femmina,6,9,1646,926,,,,,,,,,,,,,,,,,1,0,1,0,,,,,0,18,18,5,104.55357279071255,rabbia,107.44766167767449,rabbia,3,,,,,,,,,,angry,[-283.0],[104.0],[1],[0],[0],[3.604764292541631],['rabbia_3'],0.010744569907728874,None,0.22424848122371066,soddisfazione,256.5053605677667,neutral,1,[255.0],[2.0],[1],[0],[0],[2.4154232955172574],['neutral_5'],0.00959072830733021,None,,,04,001,healthy,24,f,18,1,virginia,2022-03-25_13h16.35.388,pilot_AIM1,2022.1.1,84.98304439459399,
,,stimoli/02.subtle/JM1_Fear.wmv,fear,subtle,maschio,7,10,1646,926,,,,,,,,,,,,,,,,,1,0,1,0,,,,,0,19,19,2,-129.65694424142484,paura,98.71676655968832,paura,3,,,,,,,,,,fear,[-319.0],[-76.0],[1],[0],[0],[2.334327667590742],['paura_3'],0.010863288425753126,None,0.5606061751336225,soddisfazione,256.54629211898583,neutral,1,[255.0],[5.0],[1],[0],[0],[1.1449805906422625],['neutral_5'],0.009615368000140734,None,,,04,001,healthy,24,f,18,1,virginia,2022-03-25_13h16.35.388,pilot_AIM1,2022.1.1,84.98304439459399,
,,stimoli/02.subtle/JF2_Surprise.wmv,surprised,subtle,femmina,6,10,1646,926,,,,,,,,,,,,,,,,,1,0,1,0,,,,,0,20,20,21,-80.81945804237385,sorpresa,100.2845950283492,sorpresa,3,,,,,,,,,,surprised,[-240.0],[-99.0],[1],[0],[0],[2.7577428633690033],['sorpresa_3'],0.010731770067195612,None,0.662349447372199,soddisfazione,256.5833198008008,neutral,1,[263.0],[6.0],[1],[0],[0],[1.0742675531409986],['neutral_5'],0.009623687896237243,None,,,04,001,healthy,24,f,18,1,virginia,2022-03-25_13h16.35.388,pilot_AIM1,2022.1.1,84.98304439459399,
,,stimoli/01.full/F03-Anger-Face Forward.wmv,angry,full,femmina,2,6,720,576,,,,,,,,,,,,,,,,,1,0,1,0,,,,,0,21,21,33,101.30993247402021,rabbia,66.2872536767062,rabbia,2,,,,,,,,,,angry,[-269.0],[65.0],[1],[0],[0],[1.993042966823623],['rabbia_2'],0.010715450271163718,None,2.646825570428574,soddisfazione,257.00583650960147,invidia,3,[155.0],[19.0],[1],[0],[0],[2.4272228282591186],['invidia_7'],0.00930241190576453,None,,,04,001,healthy,24,f,18,1,virginia,2022-03-25_13h16.35.388,pilot_AIM1,2022.1.1,84.98304439459399,
,,stimoli/01.full/F03-Sadness-Face Forward.wmv,sad,full,femmina,2,6,720,576,,,,,,,,,,,,,,,,,1,0,1,0,,,,,0,22,22,45,-99.39244934081893,tristezza,134.80726983364065,tristezza,4,,,,,,,,,,sad,[-278.0],[-133.0],[1],[0],[0],[3.6163081484744453],['tristezza_4'],0.010556412255709802,None,11.487181033141537,soddisfazione,275.641070960044,rabbia,3,[241.0],[101.0],[1],[0],[0],[1.498122103436117],['rabbia_7'],0.009580488435176449,None,,,04,001,healthy,24,f,18,1,virginia,2022-03-25_13h16.35.388,pilot_AIM1,2022.1.1,84.98304439459399,
,,stimoli/01.full/M02-Neutral-Face Forward.wmv,neutral,full,maschio,3,6,720,576,,,,,,,,,,,,,,,,,1,0,1,0,,,,,0,23,23,54,9.727578551401603,soddisfazione,71.02112361825881,soddisfazione,2,,,,,,,,,,neutral,[-186.0],[12.0],[1],[0],[0],[2.346090400791809],['soddisfazione_2'],0.010671610818235422,None,3.847726762473569,soddisfazione,259.40123361310367,gioia,2,[309.0],[38.0],[1],[0],[0],[3.061976506533256],['gioia_6'],0.008914576745837621,None,,,04,001,healthy,24,f,18,1,virginia,2022-03-25_13h16.35.388,pilot_AIM1,2022.1.1,84.98304439459399,
,,stimoli/01.full/M02-Surprise-Face Forward.wmv,surprised,full,maschio,3,6,720,576,,,,,,,,,,,,,,,,,1,0,1,0,,,,,0,24,24,50,-77.84505830277777,sorpresa,132.9812016790343,sorpresa,4,,,,,,,,,,surprised,[-228.0],[-130.0],[1],[0],[0],[1.8516917708866458],['sorpresa_4'],0.010579771964330575,None,0.8934290153421531,soddisfazione,256.6261872841507,neutral,1,[257.0],[8.0],[1],[0],[0],[1.0035516356756489],['neutral_5'],0.009532809030361022,None,,,04,001,healthy,24,f,18,1,virginia,2022-03-25_13h16.35.388,pilot_AIM1,2022.1.1,84.98304439459399,
,,stimoli/02.subtle/JM1_Disgust.wmv,disgusted,subtle,maschio,7,10,1646,926,,,,,,,,,,,,,,,,,1,0,1,0,,,,,0,25,25,10,147.9946167919165,disgusto,103.77379245262264,disgusto,3,,,,,,,,,,disgusted,[-344.0],[55.0],[1],[0],[0],[3.6050986883683436],['disgusto_3'],0.010813689045107822,None,0.1119056770662069,soddisfazione,256.5014619841376,neutral,1,[256.0],[1.0],[1],[0],[0],[1.0269558235913792],['neutral_5'],0.00938817083556387,None,,,04,001,healthy,24,f,18,1,virginia,2022-03-25_13h16.35.388,pilot_AIM1,2022.1.1,84.98304439459399,
,,stimoli/02.subtle/JF1_Anger.wmv,angry,subtle,femmina,5,10,1646,926,,,,,,,,,,,,,,,,,1,0,1,0,,,,,0,26,26,4,-129.1303995569853,paura,76.05918747922567,paura,2,,,,,,,,,,angry,[-304.0],[-59.0],[1],[0],[0],[3.81711876235795],['paura_2'],0.010763449671912895,None,0.11060947555190032,soddisfazione,256.5131575572684,neutral,1,[262.0],[1.0],[1],[0],[0],[0.8732415819451944],['neutral_5'],0.008506261841603191,None,,,04,001,healthy,24,f,18,1,virginia,2022-03-25_13h16.35.388,pilot_AIM1,2022.1.1,84.98304439459399,
,,stimoli/02.subtle/JM1_Anger.wmv,angry,subtle,maschio,7,10,1646,926,,,,,,,,,,,,,,,,,1,0,1,0,,,,,0,27,27,6,103.05524722379661,rabbia,70.83078426785913,rabbia,2,,,,,,,,,,angry,[-272.0],[69.0],[1],[0],[0],[1.6991643944284078],['rabbia_2'],0.010925367651225315,None,1.9305874411669917,soddisfazione,256.80732076792515,invidia,2,[189.0],[15.0],[1],[0],[0],[3.3329676845633003],['invidia_6'],0.009559048703067674,None,,,04,001,healthy,24,f,18,1,virginia,2022-03-25_13h16.35.388,pilot_AIM1,2022.1.1,84.98304439459399,
,,stimoli/02.subtle/JF2_Neutral.wmv,neutral,subtle,femmina,6,9,1646,926,,,,,,,,,,,,,,,,,1,0,1,0,,,,,0,28,28,25,-156.80140948635182,vergogna,7.615773105863909,neutral,1,,,,,,,,,,neutral,[-263.0],[-3.0],[1],[0],[0],[1.4165007220708503],['neutral_1'],0.01072729012344098,None,0.0,soddisfazione,256.4995126701024,neutral,1,[256.0],[0.0],[1],[0],[0],[0.6502373250382334],['neutral_5'],0.009144013882405488,None,,,04,001,healthy,24,f,18,1,virginia,2022-03-25_13h16.35.388,pilot_AIM1,2022.1.1,84.98304439459399,
,,stimoli/01.full/M02-Sadness-Face Forward.wmv,sad,full,maschio,3,6,720,576,,,,,,,,,,,,,,,,,1,0,1,0,,,,,0,29,29,46,-123.53046966713309,paura,99.56907150315303,paura,3,,,,,,,,,,sad,[-311.0],[-83.0],[1],[0],[0],[3.534175093494923],['paura_3'],0.01068569064273106,None,0.0,soddisfazione,256.4995126701024,neutral,1,[256.0],[0.0],[1],[0],[0],[0.6624547725641605],['neutral_5'],0.009536008990380651,None,,,04,001,healthy,24,f,18,1,virginia,2022-03-25_13h16.35.388,pilot_AIM1,2022.1.1,84.98304439459399,
,,stimoli/02.subtle/JF2_Sadness.wmv,sad,subtle,femmina,6,8,1646,926,,,,,,,,,,,,,,,,,1,0,1,0,,,,,0,30,30,17,-103.83485315665874,tristezza,138.00362314084367,tristezza,4,,,,,,,,,,sad,[-289.0],[-134.0],[1],[0],[0],[2.545874787482717],['tristezza_4'],0.010684410658996057,None,0.0,soddisfazione,256.4995126701024,neutral,1,[256.0],[0.0],[1],[0],[0],[0.4389097224066063],['neutral_5'],0.009462089913085947,None,,,04,001,healthy,24,f,18,1,virginia,2022-03-25_13h16.35.388,pilot_AIM1,2022.1.1,84.98304439459399,
,,stimoli/02.subtle/JM2_Happiness.wmv,happy,subtle,maschio,8,10,1646,926,,,,,,,,,,,,,,,,,1,0,1,0,,,,,0,31,31,15,-11.633633998940438,soglievo,104.1393297462587,sollievo,3,,,,,,,,,,happy,[-154.0],[-21.0],[1],[0],[0],[3.9577157277080914],['sollievo_3'],0.010687930614039942,None,1.8778774472853594,soddisfazione,257.46844466846807,soddisfazione,3,[354.0],[20.0],[1],[0],[0],[1.7800430650627277],['soddisfazione_7'],0.009508809329872747,None,,,04,001,healthy,24,f,18,1,virginia,2022-03-25_13h16.35.388,pilot_AIM1,2022.1.1,84.98304439459399,
,,stimoli/01.full/M03-Neutral-Face Forward.wmv,neutral,full,maschio,4,6,720,576,,,,,,,,,,,,,,,,,1,0,1,0,,,,,0,32,32,55,180.0,soddisfazione,7.0,neutral,1,,,,,,,,,,neutral,[-263.0],[0.0],[1],[0],[0],[0.7814315277346395],['neutral_1'],0.010801529197124182,None,0.0,soddisfazione,256.4995126701024,neutral,1,[256.0],[0.0],[1],[0],[0],[0.5094038826396172],['neutral_5'],0.009343691390768072,None,,,04,001,healthy,24,f,18,1,virginia,2022-03-25_13h16.35.388,pilot_AIM1,2022.1.1,84.98304439459399,
,,stimoli/01.full/F01-Sadness-Face Forward.wmv,sad,full,femmina,1,6,720,576,,,,,,,,,,,,,,,,,1,0,1,0,,,,,0,33,33,44,-105.8323866204222,tristezza,139.2838827718412,tristezza,4,,,,,,,,,,sad,[-294.0],[-134.0],[1],[0],[0],[2.0519939111159147],['tristezza_4'],0.010784249412608915,None,-2.136910853757252,soglievo,256.7235867621049,colpa,3,[146.0],[-15.0],[1],[0],[0],[1.7094202664347904],['colpa_7'],0.00951200929011975,None,,,04,001,healthy,24,f,18,1,virginia,2022-03-25_13h16.35.388,pilot_AIM1,2022.1.1,84.98304439459399,
,,stimoli/02.subtle/JF1_Sadness.wmv,sad,subtle,femmina,5,10,1646,926,,,,,,,,,,,,,,,,,1,0,1,0,,,,,0,34,34,16,-149.40002130679107,vergogna,108.04628637764465,vergogna,3,,,,,,,,,,sad,[-349.0],[-55.0],[1],[0],[0],[2.404950466217997],['vergogna_3'],0.010885368150411523,None,-2.070030653041098,soglievo,256.7489045740994,colpa,3,[159.0],[-15.0],[1],[0],[0],[1.4272509879078825],['colpa_7'],0.009625927868000872,None,,,04,001,healthy,24,f,18,1,virginia,2022-03-25_13h16.35.388,pilot_AIM1,2022.1.1,84.98304439459399,
,,stimoli/01.full/F03-Surprise-Face Forward.wmv,surprised,full,femmina,2,6,720,576,,,,,,,,,,,,,,,,,1,0,1,0,,,,,0,35,35,49,-83.96999119171853,sorpresa,142.79005567615695,sorpresa,4,,,,,,,,,,surprised,[-241.0],[-142.0],[1],[0],[0],[1.416880237334226],['sorpresa_4'],0.010892088066611905,None,0.22381050036853808,soddisfazione,256.50730983736116,neutral,1,[256.0],[2.0],[1],[0],[0],[0.5097017989214692],['neutral_5'],0.009526409110094392,None,,,04,001,healthy,24,f,18,1,virginia,2022-03-25_13h16.35.388,pilot_AIM1,2022.1.1,84.98304439459399,
,,stimoli/01.full/F03-Joy-Face Forward.wmv,happy,full,femmina,2,6,720,576,,,,,,,,,,,,,,,,,1,0,1,0,,,,,0,36,36,41,36.52885536698517,gioia,134.40238093129153,gioia,4,,,,,,,,,,happy,[-148.0],[80.0],[1],[0],[0],[2.063678245295705],['gioia_4'],0.010710970326726965,None,0.0,soddisfazione,256.4995126701024,neutral,1,[256.0],[0.0],[1],[0],[0],[0.721173719752187],['neutral_5'],0.0095366489827029,None,,,04,001,healthy,24,f,18,1,virginia,2022-03-25_13h16.35.388,pilot_AIM1,2022.1.1,84.98304439459399,
,,stimoli/02.subtle/JM2_Neutral.wmv,neutral,subtle,maschio,8,10,1646,926,,,,,,,,,,,,,,,,,1,0,1,0,,,,,0,37,37,27,-90.0,tristezza,1.0,neutral,1,,,,,,,,,,neutral,[-256.0],[-1.0],[1],[0],[0],[0.9225958460037873],['neutral_1'],0.010786489384827291,None,-0.1119056770662069,soglievo,256.5014619841376,neutral,1,[256.0],[-1.0],[1],[0],[0],[0.29884267044326407],['neutral_5'],0.009260172432732361,None,,,04,001,healthy,24,f,18,1,virginia,2022-03-25_13h16.35.388,pilot_AIM1,2022.1.1,84.98304439459399,
,,stimoli/01.full/M02-Anger-Face Forward.wmv,angry,full,maschio,3,6,720,576,,,,,,,,,,,,,,,,,1,0,1,0,,,,,0,38,38,34,100.00797980144135,rabbia,69.05070600652827,rabbia,2,,,,,,,,,,angry,[-268.0],[68.0],[1],[0],[0],[2.6282206398063863],['rabbia_2'],0.010702650430630456,None,3.2344049375670147,soddisfazione,257.32469760984856,invidia,3,[151.0],[23.0],[1],[0],[0],[2.3448251365825854],['invidia_7'],0.009634247764552129,None,,,04,001,healthy,24,f,18,1,virginia,2022-03-25_13h16.35.388,pilot_AIM1,2022.1.1,84.98304439459399,
,,stimoli/01.full/F01-Disgust-Face Forward.wmv,disgusted,full,femmina,1,6,720,576,,,,,,,,,,,,,,,,,1,0,1,0,,,,,0,39,39,36,143.9726266148964,disgusto,95.2102935611481,disgusto,3,,,,,,,,,,disgusted,[-333.0],[56.0],[1],[0],[0],[2.76941567769245],['disgusto_3'],0.01070489040330358,None,10.450437463789546,soddisfazione,269.47912720654267,disprezzo,3,[194.0],[83.0],[1],[0],[0],[1.9213875410837318],['disprezzo_7'],0.009676487237356923,None,,,04,001,healthy,24,f,18,1,virginia,2022-03-25_13h16.35.388,pilot_AIM1,2022.1.1,84.98304439459399,
,,stimoli/02.subtle/JM1_Surprise.wmv,surprised,subtle,maschio,7,10,1646,926,,,,,,,,,,,,,,,,,1,0,1,0,,,,,0,40,40,22,-82.5685920288275,sorpresa,46.389654018972806,sorpresa,1,,,,,,,,,,surprised,[-250.0],[-46.0],[1],[0],[0],[9.463483175730289],['sorpresa_1'],0.010701050450734328,None,0.335713616182199,soddisfazione,256.51705596314645,neutral,1,[256.0],[3.0],[1],[0],[0],[1.1447770731820128],['neutral_5'],0.00956768859487056,None,,,04,001,healthy,24,f,18,1,virginia,2022-03-25_13h16.35.388,pilot_AIM1,2022.1.1,84.98304439459399,
,,stimoli/02.subtle/JF2_Disgust.wmv,disgusted,subtle,femmina,6,10,1646,926,,,,,,,,,,,,,,,,,1,0,1,0,,,,,0,41,41,9,126.86989764584402,disprezzo,110.0,disprezzo,3,,,,,,,,,,disgusted,[-322.0],[88.0],[1],[0],[0],[2.4048999068490957],['disprezzo_3'],0.010760249711893266,None,0.0,soddisfazione,256.4995126701024,neutral,1,[256.0],[0.0],[1],[0],[0],[0.5801050802888312],['neutral_5'],0.009512649281987251,None,,,04,001,healthy,24,f,18,1,virginia,2022-03-25_13h16.35.388,pilot_AIM1,2022.1.1,84.98304439459399,
,,stimoli/02.subtle/JF2_Happiness.wmv,happy,subtle,femmina,6,9,1646,926,,,,,,,,,,,,,,,,,1,0,1,0,,,,,0,42,42,13,32.005383208083494,gioia,94.33981132056604,gioia,3,,,,,,,,,,happy,[-176.0],[50.0],[1],[0],[0],[5.369570107764957],['gioia_3'],0.01080792911716344,None,7.165308732915919,soddisfazione,264.87921775783013,orgoglio,2,[269.0],[66.0],[1],[0],[0],[1.285771793568074],['orgoglio_6'],0.009302091909830779,None,,,04,001,healthy,24,f,18,1,virginia,2022-03-25_13h16.35.388,pilot_AIM1,2022.1.1,84.98304439459399,
,,stimoli/01.full/F01-Joy-Face Forward.wmv,happy,full,femmina,1,6,720,576,,,,,,,,,,,,,,,,,1,0,1,0,,,,,0,43,43,40,36.86989764584402,gioia,95.0,gioia,3,,,,,,,,,,happy,[-180.0],[57.0],[1],[0],[0],[2.12258695011451],['gioia_3'],0.010875448274873634,None,2.0825652797308845,soddisfazione,257.62181584640695,soddisfazione,3,[349.0],[22.0],[1],[0],[0],[2.2744205752314883],['soddisfazione_7'],0.009630407812892372,None,,,04,001,healthy,24,f,18,1,virginia,2022-03-25_13h16.35.388,pilot_AIM1,2022.1.1,84.98304439459399,
,,stimoli/01.full/M02-Fear-Face Forward.wmv,fear,full,maschio,3,6,720,576,,,,,,,,,,,,,,,,,1,0,1,0,,,,,0,44,44,30,-126.5630958685941,paura,149.40214188558343,paura,4,,,,,,,,,,fear,[-345.0],[-120.0],[1],[0],[0],[1.9226614451849855],['paura_4'],0.010774009540909901,None,0.8831020014867493,soddisfazione,256.6378771732653,neutral,1,[263.0],[8.0],[1],[0],[0],[1.0035615555516415],['neutral_5'],0.009434570256871666,None,,,04,001,healthy,24,f,18,1,virginia,2022-03-25_13h16.35.388,pilot_AIM1,2022.1.1,84.98304439459399,
,,stimoli/01.full/F03-Disgust-Face Forward.wmv,disgusted,full,femmina,2,6,720,576,,,,,,,,,,,,,,,,,1,0,1,0,,,,,0,45,45,37,147.74202865818486,disgusto,144.26711336961034,disgusto,4,,,,,,,,,,disgusted,[-378.0],[77.0],[1],[0],[0],[2.052181428775839],['disgusto_4'],0.010736570007338742,None,-0.11125380097907195,soglievo,256.50730983736116,neutral,1,[259.0],[-1.0],[1],[0],[0],[1.4270711501517326],['neutral_5'],0.009340491430975817,None,,,04,001,healthy,24,f,18,1,virginia,2022-03-25_13h16.35.388,pilot_AIM1,2022.1.1,84.98304439459399,
,,stimoli/02.subtle/JM1_Happiness.wmv,happy,subtle,maschio,7,10,1646,926,,,,,,,,,,,,,,,,,1,0,1,0,,,,,0,46,46,14,34.76519723657679,gioia,103.46980235798269,gioia,3,,,,,,,,,,happy,[-171.0],[59.0],[1],[0],[0],[1.9813103132469223],['gioia_3'],0.010776889504541032,None,-2.1522598682736986,soglievo,257.722719215827,sollievo,3,[356.0],[-23.0],[1],[0],[0],[2.274203937934999],['sollievo_7'],0.00957440851152569,None,,,04,001,healthy,24,f,18,1,virginia,2022-03-25_13h16.35.388,pilot_AIM1,2022.1.1,84.98304439459399,
,,stimoli/02.subtle/JF1_Neutral.wmv,neutral,subtle,femmina,5,10,1646,926,,,,,,,,,,,,,,,,,1,0,1,0,,,,,0,47,47,24,0.0,soddisfazione,0.0,neutral,1,,,,,,,,,,neutral,[-256.0],[0.0],[1],[0],[0],[1.3461838396256098],['neutral_1'],0.01083608876569997,None,0.0,soddisfazione,256.4995126701024,neutral,1,[256.0],[0.0],[1],[0],[0],[0.6503045241993277],['neutral_5'],0.009170893547889136,None,,,04,001,healthy,24,f,18,1,virginia,2022-03-25_13h16.35.388,pilot_AIM1,2022.1.1,84.98304439459399,
,,stimoli/02.subtle/JM1_Sadness.wmv,sad,subtle,maschio,7,10,1646,926,,,,,,,,,,,,,,,,,1,0,1,0,,,,,0,48,48,18,-171.4954207591212,colpa,108.18964830333815,colpa,3,,,,,,,,,,sad,[-363.0],[-16.0],[1],[0],[0],[3.5342192529437852],['colpa_3'],0.010814329037202697,None,0.0,soddisfazione,256.4995126701024,neutral,1,[256.0],[0.0],[1],[0],[0],[0.5097094788256982],['neutral_5'],0.009576008491421817,None,,,04,001,healthy,24,f,18,1,virginia,2022-03-25_13h16.35.388,pilot_AIM1,2022.1.1,84.98304439459399,
,,stimoli/02.subtle/JF1_Surprise.wmv,surprised,subtle,femmina,5,10,1646,926,,,,,,,,,,,,,,,,,1,0,1,0,,,,,0,49,49,20,-80.94211187138235,sorpresa,69.87131027825369,sorpresa,2,,,,,,,,,,surprised,[-245.0],[-69.0],[1],[0],[0],[3.887302846460898],['sorpresa_2'],0.01075640976023351,None,1.9392967711839844,soddisfazione,256.80342676841366,invidia,2,[187.0],[15.0],[1],[0],[0],[13.003574355392175],['invidia_6'],0.0094198504407359,None,,,04,001,healthy,24,f,18,1,virginia,2022-03-25_13h16.35.388,pilot_AIM1,2022.1.1,84.98304439459399,
,,stimoli/02.subtle/JM2_Anger.wmv,angry,subtle,maschio,8,10,1646,926,,,,,,,,,,,,,,,,,1,0,1,0,,,,,0,50,50,7,97.98011374516852,rabbia,108.04628637764465,rabbia,3,,,,,,,,,,angry,[-271.0],[107.0],[1],[0],[0],[1.9812690337626009],['rabbia_3'],0.010713210299400089,None,2.362805907663559,soddisfazione,256.86767021172597,invidia,3,[156.0],[17.0],[1],[0],[0],[1.2858793122263705],['invidia_7'],0.009411210548478266,None,,,04,001,healthy,24,f,18,1,virginia,2022-03-25_13h16.35.388,pilot_AIM1,2022.1.1,84.98304439459399,
,,stimoli/02.subtle/JM2_Sadness.wmv,sad,subtle,maschio,8,10,1646,926,,,,,,,,,,,,,,,,,1,0,1,0,,,,,0,51,51,19,-106.85839876773828,tristezza,68.96375859826666,tristezza,2,,,,,,,,,,sad,[-276.0],[-66.0],[1],[0],[0],[5.158262024890064],['tristezza_2'],0.010873528298816382,None,-1.4386326942627028,soglievo,256.59111442136884,colpa,2,[182.0],[-11.0],[1],[0],[0],[2.073706280145416],['colpa_6'],0.008781778403772478,None,,,04,001,healthy,24,f,18,1,virginia,2022-03-25_13h16.35.388,pilot_AIM1,2022.1.1,84.98304439459399,
,,stimoli/01.full/F01-Neutral-Face Forward.wmv,neutral,full,femmina,1,6,720,576,,,,,,,,,,,,,,,,,1,0,1,0,,,,,0,52,52,52,0.0,soddisfazione,0.0,neutral,1,,,,,,,,,,neutral,[-256.0],[0.0],[1],[0],[0],[1.2871215367231343],['neutral_1'],0.010723130175847473,None,0.0,soddisfazione,256.4995126701024,neutral,1,[256.0],[0.0],[1],[0],[0],[0.3683227633318893],['neutral_5'],0.009608968080101477,None,,,04,001,healthy,24,f,18,1,virginia,2022-03-25_13h16.35.388,pilot_AIM1,2022.1.1,84.98304439459399,
,,stimoli/01.full/M03-Disgust-Face Forward.wmv,disgusted,full,maschio,4,6,720,576,,,,,,,,,,,,,,,,,1,0,1,0,,,,,0,53,53,39,145.15426658020027,disgusto,96.26006440887103,disgusto,3,,,,,,,,,,disgusted,[-335.0],[55.0],[1],[0],[0],[2.769553915967208],['disgusto_3'],0.010763769668301393,None,9.993580259268231,soddisfazione,268.57773548825674,disprezzo,3,[198.0],[80.0],[1],[0],[0],[1.8621076408967383],['disprezzo_7'],0.009179213443985645,None,,,04,001,healthy,24,f,18,1,virginia,2022-03-25_13h16.35.388,pilot_AIM1,2022.1.1,84.98304439459399,
,,stimoli/01.full/F03-Fear-Face Forward.wmv,fear,full,femmina,2,6,720,576,,,,,,,,,,,,,,,,,1,0,1,0,,,,,0,54,54,29,-125.68522024571024,paura,135.4289481610191,paura,4,,,,,,,,,,fear,[-335.0],[-110.0],[1],[0],[0],[2.051992631131725],['paura_4'],0.010842168690487597,None,0.1119056770662069,soddisfazione,256.5014619841376,neutral,1,[256.0],[1.0],[1],[0],[0],[0.5092237248877609],['neutral_5'],0.009254732501631224,None,,,04,001,healthy,24,f,18,1,virginia,2022-03-25_13h16.35.388,pilot_AIM1,2022.1.1,84.98304439459399,
,,stimoli/01.full/M03-Joy-Face Forward.wmv,happy,full,maschio,4,6,720,576,,,,,,,,,,,,,,,,,1,0,1,0,,,,,0,55,55,43,38.407127292405754,gioia,141.65097952361643,gioia,4,,,,,,,,,,happy,[-145.0],[88.0],[1],[0],[0],[2.3345894243238945],['gioia_4'],0.010825528897385084,None,-0.33311124392136665,soglievo,256.5248525971704,neutral,1,[260.0],[-3.0],[1],[0],[0],[0.7323511802574103],['neutral_5'],0.008896016978269472,None,,,04,001,healthy,24,f,18,1,virginia,2022-03-25_13h16.35.388,pilot_AIM1,2022.1.1,84.98304439459399,
